timestamp,ax,ay,az
1746613969.2262495,1.677908182144165,-7.146091938018798,5.82230567932129
1746613969.5272892,1.677908182144165,-7.146091938018798,5.82230567932129
1746613969.8697217,1.677908182144165,-7.146091938018798,5.82230567932129
1746613970.2690108,3.144038677215576,-7.4229979515075675,6.453041553497315
1746613970.6556137,3.144038677215576,-7.4229979515075675,6.453041553497315
1746613971.0560787,2.435014247894287,-7.785064220428466,5.901040554046632
1746613971.9458034,2.1463959217071533,-7.492201328277587,5.835587978363038
1746613972.345411,1.5938576459884644,-7.851099967956542,5.382855415344239
1746613973.5562499,2.142169237136841,-8.63399600982666,5.977411746978761
1746613973.9422598,2.142169237136841,-8.63399600982666,5.977411746978761
1746613974.6650016,2.142169237136841,-8.63399600982666,5.977411746978761
1746613974.9339952,1.4305198192596436,-6.397988319396972,6.535469055175782
1746613975.5222824,2.465404510498047,-7.184873104095458,5.80590057373047
1746613975.8417132,2.465404510498047,-7.184873104095458,5.80590057373047
1746613976.1040792,3.0881340503692627,-7.623610973358153,5.400001049041749
1746613976.442732,2.9231441020965576,-7.326012611389159,5.265408515930177
1746613976.97654,2.9231441020965576,-7.326012611389159,5.265408515930177
1746613977.106284,3.073645830154419,-7.8660922050476065,5.594411849975587
1746613977.1451719,2.972496509552002,-7.47782802581787,5.6580777168273935
1746613977.242113,2.796865940093994,-7.16612958908081,6.181458473205567
1746613977.2840264,2.7326574325561523,-7.075244903564452,5.788008689880372
1746613977.3361936,2.576342821121216,-8.052120208740234,5.815721035003663
1746613977.3876717,1.8171803951263428,-8.230969429016113,4.729278564453126
1746613977.4283152,1.7448670864105225,-8.056937217712402,5.192054271697999
1746613977.4758263,1.7469419240951538,-8.139097213745117,7.031106472015382
1746613977.529777,2.2448983192443848,-6.774840354919433,5.795153617858888
1746613977.5949776,2.3955979347229004,-7.727845668792724,5.733548641204835
1746613977.6427817,2.3568410873413086,-7.44410753250122,6.122694969177247
1746613977.7005649,2.702296018600464,-8.26182746887207,4.962066173553468
1746613977.7864656,3.098350763320923,-7.589282512664794,3.851931810379029
1746613977.855273,0.6056915521621704,-4.889840126037597,6.895366191864015
1746613977.9103694,-0.8295719623565674,-6.79493761062622,6.252789974212647
1746613977.9710789,0.7058885097503662,-5.720684051513671,6.370975017547608
1746613978.0241544,0.07279461622238159,-3.6476469039916983,7.884145259857179
1746613978.070093,-0.29715776443481445,-6.634889125823974,8.247589111328125
1746613978.1283677,-0.9295204281806946,-7.575592517852782,7.5348148345947275
1746613978.1707697,-0.31837788224220276,-7.315496921539306,7.65050220489502
1746613978.2137,1.1401338577270508,-6.483942508697509,6.794624328613282
1746613978.256146,0.8054301142692566,-5.612326145172118,7.413074016571046
1746613978.2998345,0.7449126243591309,-5.601691246032714,6.8531861305236825
1746613978.3443618,-0.42134180665016174,-6.979660987854003,6.636037349700929
1746613978.387993,-0.4009411931037903,-6.711835861206054,7.984919071197511
1746613978.4334438,0.33406415581703186,-6.383519649505614,6.8312406539917
1746613978.4768913,-0.6367806196212769,-7.594231128692626,7.4760403633117685
1746613978.518346,-0.19733139872550964,-6.6809606552124015,8.310714721679688
1746613978.560159,-1.6057043075561523,-6.009986877441405,7.979637622833253
1746613978.6054065,0.11658784747123718,-4.406632423400878,8.557581901550293
1746613978.65198,-0.2775416672229767,-4.7870492935180655,6.077085494995118
1746613978.6776447,-0.08378565311431885,-5.090394496917724,7.708008766174317
1746613978.7202544,-0.5351699590682983,-5.702200412750243,8.233024597167969
1746613978.7540863,-2.7678558826446533,-6.668435096740722,7.015985965728761
1746613978.7810004,-0.0465853214263916,-6.359612464904784,9.163847923278809
1746613978.8902,1.3780022859573364,-8.934273719787596,10.420105934143068
1746613978.9616385,-0.05238524079322815,-9.228431701660154,9.363801002502443
1746613979.0625656,-2.7101879119873047,-6.431369304656982,3.218008279800416
1746613979.5615013,-1.4012491703033447,-0.8415635228157037,5.605167865753174
1746613979.6217635,0.4851619601249695,-9.621466636657715,5.714765071868897
1746613979.662682,-4.61647367477417,-10.707392692565918,5.918332099914552
1746613979.704112,-3.5208799839019775,-6.553031921386718,8.182053565979004
1746613979.7318316,-1.6437166929244995,-8.84893226623535,10.328647613525392
1746613979.7637165,-0.1475476324558258,-6.68358278274536,9.958431243896484
1746613979.788567,0.05681261420249939,-4.727099895477294,4.635247230529786
1746613979.8415174,1.010501503944397,-3.9601695537567134,4.514661788940431
1746613979.9240787,0.13939747214317322,-7.650586128234862,5.323499202728272
1746613980.0202832,0.4187895953655243,-5.490517139434814,6.290075302124024
1746613980.156006,0.6680418252944946,-8.526890754699705,8.044384002685549
1746613980.2128115,-1.052276849746704,-8.863595962524412,13.53221893310547
1746613980.3553133,2.9226911067962646,-5.305168628692625,11.587040901184082
1746613980.4119537,-0.8960407376289368,-4.622307777404784,6.44101905822754
1746613980.501722,-0.3168199360370636,-5.1987338066101065,5.883760452270509
1746613980.6354127,1.3966847658157349,-8.223758697509764,14.713169097900392
1746613980.696836,1.1187208890914917,-10.094584465026855,6.077676296234132
1746613980.805057,1.5529414415359497,-4.357760429382324,3.115960836410523
1746613980.8898406,1.4858996868133545,-4.851363658905029,2.420843839645386
1746613980.985869,1.9668413400650024,-7.007463932037352,13.283120155334473
1746613981.1039405,0.08017295598983765,-8.358941078186033,10.27235794067383
1746613981.1844332,0.19148769974708557,-5.278306961059569,5.960371971130372
1746613981.279381,1.7272363901138306,-3.811673164367675,6.554762840270997
1746613981.3713796,2.1572065353393555,-2.871187925338744,10.784577369689941
1746613981.4669466,0.45159873366355896,-10.769600868225098,3.8002316951751722
1746613981.5858903,-0.5167806148529053,-6.926403999328613,1.1160581111907968
1746613981.6601493,0.14925462007522583,-7.0453715324401855,2.7723548412323007
1746613981.7627406,0.1367882490158081,-11.187196731567381,10.309496879577638
1746613981.8515744,0.30307185649871826,-9.468491554260252,11.176616668701174
1746613981.9510863,-0.8095880150794983,-5.736659049987792,4.51645851135254
1746613982.07451,2.494933843612671,-4.227909088134765,9.408060073852539
1746613982.1431909,2.3206076622009277,-13.274716377258299,7.941716194152834
1746613982.2436142,1.5695961713790894,-7.617070198059082,1.0348615646362314
1746613982.33471,-0.12734615802764893,-3.814329624176025,4.707714080810548
1746613982.4306931,0.8922824859619141,-9.724880218505858,7.822624683380128
1746613982.5483892,2.18557071685791,-10.824717521667479,10.796292304992678
1746613982.6236126,0.3079689145088196,-7.975990772247314,6.722064495086671
1746613982.7255743,0.26084649562835693,-4.459254264831542,6.9142494201660165
1746613982.8164594,0.25786569714546204,-13.071868896484373,12.53055000305176
1746613982.913257,0.5827557444572449,-9.850001335144043,4.614373207092286
1746613983.0315223,-0.5081951022148132,-7.725745677947998,2.615617752075196
1746613983.1246657,-0.3053343892097473,-6.88726806640625,2.576117992401124
1746613983.2125273,1.8945449590682983,-8.410855293273926,6.063982486724854
1746613983.2997446,1.4293062686920166,-4.2240843772888175,8.367575645446777
1746613983.3952937,-2.314258098602295,-2.376147270202636,5.920797824859619
1746613983.5167067,2.691725730895996,-4.998382091522216,9.739836692810059
1746613983.5876286,0.24901124835014343,-8.99726390838623,1.3349258899688732
1746613983.6972046,-0.5598849058151245,-8.02434253692627,1.7101194858551034
1746613983.7807112,-2.031238317489624,-2.530259370803833,0.05064796283841164
1746613983.8865273,0.7578725218772888,-6.37807559967041,1.6061954498291025
1746613983.9968297,2.9295005798339844,-9.279496192932127,12.339833259582521
1746613984.074409,-3.2406680583953857,-9.143735885620115,7.929955959320069
1746613984.175488,0.479917049407959,-5.926156997680663,9.846365928649902
1746613984.2628832,1.0059735774993896,-16.026046752929688,11.731984138488771
1746613984.3588912,-0.13954976201057434,-9.07463550567627,-0.9804347753524769
1746613984.4786832,-1.4537708759307861,-5.872167587280273,2.165447711944581
1746613984.553189,-1.0415465831756592,-6.994184970855713,1.7549986839294442
1746613984.6539774,2.131662607192993,-11.615924835205076,8.53209686279297
1746613984.7457032,0.9013403654098511,-11.12335968017578,7.694386482238771
1746613984.841304,0.7433760762214661,-4.700338840484618,7.19033432006836
1746613984.961665,2.095412254333496,-6.117671489715575,10.78868579864502
1746613985.0335953,1.697445034980774,-12.951244354248047,2.8752717971801776
1746613985.1423934,-2.415952444076538,-4.900110244750977,2.687069177627564
1746613985.226495,-2.008331060409546,-8.173503875732422,2.7099008560180673
1746613985.3864875,1.219085693359375,-10.9440221786499,11.339845657348635
1746613985.4439166,0.2540737986564636,-3.6460075378417955,11.372575759887695
1746613985.5172694,-3.148927688598633,-4.540125846862792,3.7598474025726323
1746613985.622722,2.8277533054351807,-0.7197667360305774,9.909797668457031
1746613985.7095714,-0.7849841117858887,-10.554553031921387,5.235496520996095
1746613985.8054361,-1.187018871307373,-6.34300422668457,-0.5722914934158317
1746613985.923611,-1.4848599433898926,-5.033540725708008,2.7929239273071294
1746613985.9973736,-0.11269965767860413,-11.50141429901123,3.4802067279815687
1746613986.1012924,4.308273792266846,-11.518147468566893,10.92750644683838
1746613986.1923661,1.3095356225967407,-4.283070564270019,6.836623191833497
1746613986.2884834,1.7336900234222412,-3.9970808029174796,7.314981937408448
1746613986.4065769,-0.00537678599357605,-9.370523452758787,12.908924102783205
1746613986.4832351,0.9380661249160767,-7.4915266036987305,2.5783915519714364
1746613986.5929792,-2.6670656204223633,-7.973766326904297,2.7767987251281747
1746613986.6725037,0.8690733909606934,-10.577413558959961,5.337687492370606
1746613986.7725012,5.81308650970459,-12.245203018188475,11.763618469238283
1746613986.8887634,-1.0319066047668457,-2.704697608947753,6.1028876304626465
1746613986.9666803,3.333763360977173,-1.900903105735778,7.58422327041626
1746613987.0659032,3.9384281635284424,-5.030872344970701,12.318564414978027
1746613987.1569774,2.135528564453125,-8.481179237365723,6.594223022460938
1746613987.2547255,-2.275667667388916,-5.913219451904297,0.7415222525596626
1746613987.3699367,-0.4170446991920471,-7.50820255279541,3.0943212509155282
1746613987.444227,5.199947834014893,-8.17209720611572,13.075268745422365
1746613987.5478542,-1.2230595350265503,-5.311175346374511,9.72996997833252
1746613987.6428661,0.025112152099609375,-7.101491928100585,5.027616024017335
1746613987.8757243,1.9707928895950317,-4.23424482345581,10.334742546081543
1746613987.900591,2.2053961753845215,-11.969131469726562,6.766481399536135
1746613987.938533,0.020769357681274414,-7.537201881408691,2.2740983963012704
1746613988.0313685,0.8129809498786926,-5.562961101531982,2.2880163192749032
1746613988.1211307,2.474928855895996,-9.284022331237791,8.084197998046877
1746613988.2172344,1.762273907661438,-8.09097385406494,10.024994850158693
1746613988.3489573,0.4673488140106201,-8.374380111694334,9.501642227172853
1746613988.4092414,0.9219886064529419,-3.965185403823852,3.858662366867066
1746613988.51975,2.137202024459839,-1.0382587909698477,6.831554889678955
1746613988.6016226,3.1577951908111572,-4.30203628540039,9.154017448425293
1746613988.6983702,2.8395309448242188,-6.964718341827392,4.175735950469972
1746613988.818256,5.576669692993164,-7.119641780853271,7.294530868530274
1746613988.8922842,4.543254852294922,-4.560897350311278,9.837824821472168
1746613989.0050573,0.9696681499481201,-6.892240047454833,10.732287406921387
1746613989.084146,3.3257720470428467,-5.970271110534667,4.75068759918213
1746613989.1818938,1.7458138465881348,-7.128492355346679,10.046880722045898
1746613989.298641,2.9788811206817627,-5.085027217864989,7.8073463439941415
1746613989.3751543,4.437225818634033,-5.306524753570556,6.229780197143556
1746613989.4762025,4.299478530883789,-6.131978511810302,8.143394470214844
1746613989.5652702,2.879448413848877,-5.108252525329588,13.569320678710938
1746613989.6645205,1.3818776607513428,-8.083759307861326,12.422813415527346
1746613989.779817,-0.4182729125022888,-5.420952796936034,5.973687648773194
1746613989.8571677,-0.07445377111434937,-7.105923175811767,6.500734329223634
1746613989.96296,2.020720958709717,-7.534339427947997,5.487300872802735
1746613990.1058638,4.180927276611328,-4.979778766632079,5.7765212059021005
1746613990.14615,1.5025842189788818,-6.018718719482421,5.720048904418946
1746613990.2629032,-1.3789541721343994,-8.612884521484373,7.789949417114259
1746613990.3392286,-0.03376126289367676,-7.32132863998413,7.136035442352296
1746613990.440045,1.8738969564437866,-8.604134559631348,5.60996961593628
1746613990.536819,1.5507817268371582,-7.501304149627685,5.674074172973634
1746613990.628699,1.9795863628387451,-6.786613941192626,4.314359664916993
1746613990.7451267,2.017941474914551,-6.094088554382323,6.78247356414795
1746613990.8203163,0.13462211191654205,-7.26017141342163,6.535015583038331
1746613990.9262328,1.8050975799560547,-8.50439739227295,6.375271797180177
1746613991.0122607,3.606173276901245,-7.136977195739745,7.463177680969239
1746613991.111632,2.285409450531006,-5.490095138549804,6.07569169998169
1746613991.2339418,2.935500144958496,-8.045641899108887,4.684857845306397
1746613991.3011389,3.74438214302063,-7.739577770233153,5.43074655532837
1746613991.409629,0.3155898451805115,-7.106425285339355,5.317753314971925
1746613991.495421,3.123441219329834,-8.408905982971191,6.5620975494384775
1746613991.5915856,-0.10271167755126953,-8.418570518493652,5.599997520446778
1746613991.7108877,0.5408761501312256,-8.228267669677734,3.951787233352662
1746613991.7873905,2.1369588375091553,-7.071264743804931,4.198489665985108
1746613991.8982034,2.115999221801758,-5.189679145812987,3.755767107009888
1746613991.9831965,3.9191555976867676,-6.132273197174071,4.183677673339845
1746613992.0755072,1.3489879369735718,-5.209855079650878,6.943321704864503
1746613992.195252,1.0288736820220947,-9.226509094238281,4.871727943420411
1746613992.2671838,2.905874252319336,-6.024211406707763,5.6079773902893075
1746613992.3699746,3.276010751724243,-7.085711479187011,5.834785461425782
1746613992.4611425,4.023513317108154,-5.72491693496704,3.7174208164215097
1746613992.554892,3.0659425258636475,-6.646816730499267,3.8423197269439706
1746613992.6755645,4.270193099975586,-6.1717772483825675,5.337432384490968
1746613992.74768,7.963887691497803,-6.2316598892211905,8.249723434448242
1746613992.8517582,15.599832534790039,-8.908049583435057,16.792625427246094
1746613992.9426606,47.785072326660156,-12.232139587402344,5.8869881629943865
1746613993.0398493,-1.0063514709472656,-5.417798995971679,9.07668399810791
1746613993.337056,-0.8277045488357544,-2.805415153503417,6.270115852355957
1746613993.3843277,0.5982816219329834,-8.144675254821776,7.449801445007325
1746613993.4094048,0.9992172122001648,-15.126709938049315,15.14549255371094
1746613993.4384153,1.3616479635238647,-13.997907638549803,9.186669349670412
1746613993.519898,1.3803305625915527,-6.532999992370605,5.582956314086915
1746613993.6406984,0.0194738507270813,-6.322513580322265,5.079374790191651
1746613993.713019,0.5634491443634033,-5.097119331359862,5.107777118682862
1746613993.8206868,2.9692530632019043,-14.457949638366697,11.995676994323732
1746613993.9051204,2.3858470916748047,-13.77036952972412,11.165996551513674
1746613994.0045626,1.0987132787704468,-8.436241149902342,8.262172698974611
1746613994.1222422,2.259552240371704,-6.148170948028564,4.664597034454347
1746613994.1956353,1.1615548133850098,-2.4026019573211665,3.7406380176544194
1746613994.3073027,0.11833721399307251,-2.7378110885620113,4.816214084625244
1746613994.3911717,1.7812856435775757,-4.206520557403564,3.643499851226807
1746613994.4895504,1.0599398612976074,-3.513100385665893,2.6919863224029545
1746613994.6041155,1.8157269954681396,-3.994780540466308,4.326803207397462
1746613994.6775568,1.4705767631530762,-1.3360428810119627,2.3659064769744873
1746613994.7824728,1.580365538597107,-0.2858279347419737,1.1892623901367188
1746613994.873096,1.608940839767456,1.1679662466049194,0.12762188911437974
1746613994.968565,7.343331336975098,1.4127839803695674,-2.8336849212646484
1746613995.0858839,-0.9643068313598633,3.9559457302093506,-1.2694159746170048
1746613995.1610796,0.29542937874794006,0.7993277907371522,0.5304813385009765
1746613995.261128,-0.859592616558075,-5.3711199760437,5.971196651458741
1746613995.3529108,-3.369797945022583,-18.18621063232422,13.349561691284181
1746613995.4500237,-6.080979824066162,-20.173265457153317,14.553133964538576
1746613995.567486,-2.3204147815704346,-19.992637634277344,11.28106212615967
1746613995.642004,0.6579899787902832,-13.813702583312987,13.220727920532228
1746613995.7506864,-1.2830153703689575,-11.896016120910645,6.901941299438478
1746613995.837596,-2.3512120246887207,-11.282420158386229,9.229209899902346
1746613995.939978,-2.2416911125183105,-19.7503604888916,12.98459815979004
1746613996.0503979,-5.0565032958984375,-19.230234146118164,13.589619636535646
1746613996.1248846,-3.3452868461608887,-28.12624931335449,18.8368091583252
1746613996.2281446,-4.557029724121094,-26.901149749755856,20.249565124511722
1746613996.3168824,-6.278855800628662,-10.50960063934326,7.68922519683838
1746613996.413384,-3.417341709136963,-4.704734325408935,5.511184215545655
1746613996.532746,-1.5271897315979004,-7.2491722106933585,6.257843017578126
1746613996.6064646,-0.04220351576805115,-10.348995208740233,8.868765830993654
1746613996.7147636,-0.1366230547428131,-10.58051300048828,9.765072822570803
1746613996.7994232,0.8847307562828064,-9.38559055328369,7.28752613067627
1746613996.897756,1.1291193962097168,-11.574825286865233,10.952070236206056
1746613997.0155895,0.7683542966842651,-7.753999233245849,5.997971057891847
1746613997.088273,0.20381705462932587,-9.59349536895752,6.472796916961671
1746613997.1980414,1.1228727102279663,-7.23226499557495,6.342732429504395
1746613997.2857292,0.910088062286377,-13.510847091674803,8.557106018066408
1746613997.3796432,1.834857702255249,-2.350580215454101,2.3415243625640874
1746613997.504159,0.6936357021331787,0.3238756060600283,1.680212140083313
1746613997.5711691,0.45310378074645996,-1.9445281028747556,2.5000705718994145
1746613997.6729686,1.2604414224624634,-0.6449241638183593,1.0891783237457275
1746613997.7643745,1.7657995223999023,-4.062455654144287,2.691658258438111
1746613997.8609688,1.3457403182983398,-6.322971820831298,4.767118453979493
1746613998.0108557,1.2241779565811157,-4.551681995391845,3.8033568859100346
1746613998.0547085,1.401921272277832,-6.4026098251342765,4.864915847778321
1746613998.1615806,3.027358055114746,-6.898400306701659,5.298697471618653
1746613998.2485178,1.1555243730545044,-6.45267105102539,5.452467441558839
1746613998.3442194,1.9101754426956177,-7.631891250610351,5.77428960800171
1746613998.4641266,2.3397810459136963,-6.947139263153075,6.779166221618653
1746613998.5377343,2.0849721431732178,-10.370683670043944,8.286269187927248
1746613998.6383307,2.767345905303955,-13.379587173461912,10.340148925781252
1746613998.7313757,2.051973342895508,-14.32914638519287,11.465892791748049
1746613998.8257668,1.7460731267929077,-23.375860214233395,17.765422821044925
1746613998.943648,2.679593324661255,-13.43582248687744,9.637108802795412
1746613999.0176833,1.0548043251037598,-11.248181343078612,10.63448238372803
1746613999.122253,0.7396752834320068,-4.394371032714843,3.667366981506348
1746613999.2132275,2.519449472427368,-13.610984802246092,11.32447147369385
1746613999.5001545,0.504565954208374,-4.731399059295653,4.222321033477784
1746613999.5392876,1.0330190658569336,-5.058163166046142,5.559947967529298
1746613999.5682898,1.5841450691223145,-7.348612308502196,6.105422019958497
1746613999.6183562,2.375607490539551,-7.935363769531249,8.048386573791506
1746613999.6940897,2.079550266265869,-8.163400650024412,7.369441032409669
1746613999.7901797,2.5116209983825684,-10.059301376342772,8.497304916381838
1746613999.914922,2.5525803565979004,-7.6123032569885245,5.9514222145080575
1746613999.9835503,2.4291183948516846,-10.495957374572752,8.1224422454834
1746614000.0855973,2.4637248516082764,-6.72636842727661,5.34942388534546
1746614000.175823,3.398637294769287,-3.1555716991424556,4.450578689575195
1746614000.2722657,2.393990993499756,-2.6785130500793457,1.5078580379486086
1746614000.3906898,2.7672834396362305,-7.089735031127929,5.584819316864015
1746614000.465113,2.7653441429138184,-4.290829658508301,3.3157978057861333
1746614000.5659423,2.3654019832611084,-5.435895919799804,4.1679372787475595
1746614000.6566043,2.739072561264038,-9.534873008728026,7.575513839721681
1746614000.75575,2.7516157627105713,-10.929813385009764,8.116368293762209
1746614000.8734376,2.5396528244018555,-10.16298484802246,8.426327705383303
1746614000.9507058,1.759833574295044,-10.227590560913084,8.757917404174806
1746614001.0500212,1.7953914403915405,-5.409779548645019,4.802818775177003
1746614001.1402423,2.8330588340759277,-7.401023864746093,5.65483045578003
1746614001.235883,3.4757909774780273,-10.597880363464354,9.271986007690431
1746614001.3537378,2.7632319927215576,-11.82196807861328,9.44425392150879
1746614001.4291053,0.4687260687351227,-8.962596893310545,7.997112751007081
1746614001.5330293,-0.18896201252937317,-7.300968647003173,4.132995128631593
1746614001.6219568,-1.5713948011398315,-16.085866928100586,11.878374099731447
1746614001.7180984,-1.3981294631958008,-22.717115402221676,19.31135749816895
1746614001.8369312,-1.8149378299713135,-11.451866149902342,10.51197910308838
1746614001.9108646,-1.6859732866287231,-11.225648880004881,11.777538299560549
1746614002.0196555,0.6073079109191895,-13.731390953063963,11.234764099121096
1746614002.1050475,1.677941918373108,-9.931599617004393,8.82820796966553
1746614002.2016754,1.0441211462020874,-4.934826374053954,5.437696456909181
1746614002.32047,1.095658302307129,-7.133862972259521,5.9205899238586435
1746614002.3945043,0.998978853225708,-6.792340755462646,5.782128334045411
1746614002.506299,1.7181055545806885,-3.8554635047912593,3.248904705047608
1746614002.5895271,1.916134238243103,-3.33570384979248,3.3316693305969243
1746614002.6902869,1.7408040761947632,-6.427884578704833,5.103401184082032
1746614002.8010738,2.061814308166504,-6.241199493408202,5.016828060150147
1746614002.8779986,1.5737701654434204,-5.894085884094237,4.314587593078614
1746614002.9861526,2.485499858856201,-6.734983444213866,6.41973114013672
1746614003.0683298,1.8207677602767944,-7.208147525787353,7.4536123275756845
1746614003.16483,1.7554470300674438,1.2797985076904301,2.8004534244537354
1746614003.285659,3.224926710128784,-2.135037422180175,7.7184834480285645
1746614003.3596375,0.8361276984214783,-13.987462043762205,12.588664054870607
1746614003.46141,1.8003817796707153,-10.573774337768553,10.798517227172853
1746614003.5524814,-1.063157558441162,-3.2733297348022456,4.171082496643066
1746614003.6487045,1.2300740480422974,-10.493845939636229,8.540842056274416
1746614003.7657282,0.05752180516719818,-9.466592788696289,6.961106300354005
1746614003.8403673,1.4135520458221436,-6.510645389556884,5.069227218627931
1746614003.9470773,2.710426092147827,-12.483786582946776,7.890212059020998
1746614004.0334108,1.7018502950668335,-5.6341872215271,3.555081844329835
1746614004.1460695,1.6109739542007446,-7.316633224487304,6.3370656967163095
1746614004.2484283,1.6541558504104614,-3.984647274017333,5.727752685546876
1746614004.322139,1.2301872968673706,-7.383641242980956,7.63341522216797
1746614004.4266157,1.9845995903015137,-9.097019195556639,9.55147171020508
1746614004.514271,1.4875675439834595,-9.22627258300781,9.09572505950928
1746614004.6117785,1.7277051210403442,-12.216691970825194,9.349974632263185
1746614004.7287939,1.0938880443572998,-11.748331069946287,7.830629825592043
1746614004.8035052,1.3217447996139526,-6.599797248840331,5.578087329864503
1746614004.9119415,2.025991201400757,-5.62359857559204,4.104976177215577
1746614004.9989536,1.8358020782470703,-4.317209243774414,2.929223537445069
1746614005.0954754,1.1818859577178955,-5.8944358825683585,4.997294425964356
1746614005.2136927,1.0960248708724976,-3.097534894943237,2.5976018905639653
1746614005.2877703,1.580265760421753,-4.6819138526916495,4.813753128051759
1746614005.3983161,2.1838889122009277,-7.482822895050048,7.096530437469483
1746614005.4805672,2.074587106704712,-10.676158905029295,10.363739967346193
1746614005.577146,1.7262763977050781,-10.034257888793944,8.645430564880373
1746614005.6944025,1.8657315969467163,-11.390575408935545,9.00876808166504
1746614005.770615,2.5554027557373047,-11.505358695983885,9.72319030761719
1746614005.935349,1.3572311401367188,-10.815066337585447,8.304928779602053
1746614005.9618316,1.2100632190704346,-3.433679819107055,4.8333234786987305
1746614006.0580845,1.2465542554855347,-3.4362609386444087,4.617147922515869
1746614006.175399,0.9939451813697815,-5.577969551086425,3.899097681045533
1746614006.2526984,2.109314441680908,-10.161719322204588,8.48102378845215
1746614006.3582685,1.1331231594085693,-9.175721168518065,8.245403289794924
1746614006.6004283,1.5361926555633545,-9.326465606689451,7.459876537322999
1746614006.7005167,1.4623578786849976,-6.322678089141845,4.727137565612794
1746614006.7418272,2.9694437980651855,-1.4774777889251707,1.5978415012359621
1746614006.7616055,1.7064837217330933,-4.172366142272949,3.0943601131439213
1746614006.913834,2.051348924636841,-5.422284603118896,3.981894493103028
1746614007.0063689,1.903045892715454,-2.244871377944946,3.167307615280152
1746614007.0654228,0.9252434968948364,-10.250180244445799,9.021797180175783
1746614007.1484497,0.8138352632522583,-11.93429660797119,11.881355285644533
1746614007.2413507,-0.37265732884407043,-13.670911788940428,10.937465667724611
1746614007.4146378,-0.2985442578792572,-13.914379119873045,11.049408912658693
1746614007.5385306,1.5789403915405273,-11.593385696411131,9.121929168701174
1746614007.5861726,0.8774632215499878,-9.388133049011229,7.616016864776612
1746614007.65704,-0.195317804813385,-10.961042404174803,8.802497863769533
1746614007.771282,0.8348097801208496,-9.161272048950194,7.325913429260255
1746614007.8542469,1.1718642711639404,-4.078467369079589,3.981547355651856
1746614007.9020214,2.153189182281494,1.1358487606048584,0.22635351121425615
1746614008.0697918,2.090005874633789,-3.2635564804077144,3.176282167434693
1746614008.1617951,2.5137407779693604,-1.7085242271423338,2.155686855316162
1746614008.2140784,2.1851279735565186,-2.595271110534668,1.6918593645095827
1746614008.3346782,1.572082757949829,-5.65266466140747,4.8350610733032235
1746614008.3771808,3.092986583709717,-8.143374443054197,7.484479904174806
1746614008.4979675,2.297429084777832,-13.515050888061522,11.076112747192385
1746614008.606215,2.773402690887451,-11.950907707214354,10.170462608337404
1746614008.677126,2.1220927238464355,-11.290374755859373,9.539510726928713
1746614008.7778745,0.9535064697265625,-10.045413970947264,8.15758514404297
1746614008.8823078,0.9594956636428833,-7.862272262573241,5.084519386291505
1746614008.9757223,1.2777122259140015,-6.945730686187743,7.343414306640626
1746614009.076778,0.9913841485977173,-4.952011585235595,3.771764755249024
1746614009.147744,-0.32329708337783813,-9.603288650512694,8.543630599975588
1746614009.2519677,1.1216198205947876,-9.064507484436033,7.962980270385743
1746614009.3528748,0.19442182779312134,-14.596703529357908,11.910202980041506
1746614009.8901715,-0.9495874047279358,-25.43374633789062,19.238107681274418
1746614009.9437828,-1.6095353364944458,-15.794861793518065,11.936415672302248
1746614010.0055263,-1.0869871377944946,-10.514763832092283,7.859427452087403
1746614010.060981,0.3653336465358734,-8.314931869506836,6.215758800506593
1746614010.203664,0.31778833270072937,-6.2984881401062,4.598520278930665
1746614010.24132,0.486072301864624,-9.113533973693848,6.941130161285401
1746614010.2950673,0.18008846044540405,-7.355741024017333,5.802115440368653
1746614010.333489,-0.11554601788520813,-5.971138477325439,5.636998653411866
1746614010.402025,0.15478792786598206,-9.255705833435057,8.28404998779297
1746614010.4536095,0.7062506675720215,-17.088302612304688,11.420515060424806
1746614010.5059834,0.5498571991920471,-11.4360294342041,9.314791679382326
1746614010.5568852,-0.4187040328979492,-9.722974777221678,8.18148994445801
1746614010.6337817,0.3299581706523895,-10.522948265075682,8.313451766967775
1746614010.7383869,1.350177526473999,-9.11060905456543,6.279870510101319
1746614010.815618,2.694812059402466,-4.38649845123291,3.1619799137115483
1746614011.3847017,2.5079314708709717,-2.58826732635498,2.570168733596802
1746614011.7437541,1.3063561916351318,-3.7240085601806636,4.803933620452882
1746614012.2737296,0.932327151298523,-6.304155826568603,4.01551389694214
1746614012.3837826,1.6912301778793335,-5.968437194824218,5.270118236541749
1746614012.4740362,1.490213394165039,-4.0136027336120605,2.460548639297486
1746614012.5487146,1.4974199533462524,-0.74666690826416,0.8830125331878663
1746614012.6044478,0.9158532023429871,-7.193712711334228,4.810266971588136
1746614012.6608663,1.2514790296554565,-8.237370491027832,5.03328037261963
1746614012.7107005,1.4348772764205933,-9.146818161010742,6.847878932952882
1746614012.7632184,2.059384822845459,-10.521249771118162,8.232827186584474
1746614012.8174987,0.384235680103302,-12.538391113281248,9.403567314147951
1746614012.872393,2.1942927837371826,-13.048426628112791,10.399011611938478
1746614012.9396098,1.0146441459655762,-8.626816749572754,6.714695930480958
1746614012.9997153,1.1758121252059937,-3.747954130172729,3.54655933380127
1746614013.0330257,1.401328444480896,-10.896643638610838,7.672266006469728
1746614013.0677588,2.1710047721862793,-3.848387002944946,5.088464260101319
1746614013.1136434,2.2173690795898438,-8.974521636962889,8.372437477111818
1746614013.1614864,1.6720383167266846,-7.56022548675537,6.585494995117188
1746614013.2174182,1.181520938873291,-13.33608818054199,11.128422737121584
1746614013.2758803,1.1549103260040283,-10.884929656982422,6.854006290435793
1746614013.316795,2.0332581996917725,-9.444825172424315,10.00516986846924
1746614013.3691063,1.3849997520446777,-9.3617582321167,7.095223903656007
1746614013.4127257,0.6984966397285461,-7.8873558044433585,6.823815822601319
1746614013.464642,0.5447958707809448,-4.374033451080322,3.3801157474517827
1746614013.527256,1.5753264427185059,-6.260833740234374,6.222706317901612
1746614013.6266766,2.3174545764923096,-8.246528625488281,6.431396007537843
1746614013.6823008,-0.217208594083786,-8.377487182617186,7.987910270690919
1746614014.0632207,0.2966279089450836,-10.163625717163084,8.160447120666506
1746614014.5533075,0.5350313186645508,-8.861287117004395,6.543297290802003
1746614015.1442513,1.6731730699539185,-11.80960178375244,9.95908832550049
1746614015.209011,0.25543883442878723,-7.744659900665282,6.3368263244628915
1746614015.284317,1.414400577545166,0.17975032329559354,2.2296862602233887
1746614015.3507276,2.042607069015503,-6.883791923522948,5.846782684326173
1746614015.413413,0.27715179324150085,-10.97626495361328,8.461990356445314
1746614015.4978817,0.7720633745193481,-8.244580268859862,7.496379852294923
1746614015.5560184,-0.4469415843486786,-7.944552421569823,6.227819442749024
1746614015.609143,-0.1561715304851532,-9.858624458312988,6.606511116027833
1746614015.6613631,0.966922402381897,-8.270893096923826,7.408013820648194
1746614015.7071235,0.18097591400146484,-6.255426406860351,5.8003888130188
1746614015.771985,0.8830005526542664,-4.45255947113037,4.780571460723878
1746614015.8077776,0.18029506504535675,-11.319010734558104,8.221010208129885
1746614015.8785698,1.1249220371246338,-8.08833885192871,7.815167903900147
1746614015.9257717,0.7168590426445007,-8.126091003417969,6.196182250976563
1746614015.9962933,-0.4035116732120514,-4.660624027252197,3.3404710292816167
1746614016.0569773,1.1393752098083496,-5.10267686843872,7.10115146636963
1746614016.1193187,1.254433512687683,-5.624269485473632,5.379779338836671
1746614016.2001476,1.0296189785003662,-7.57010269165039,5.950086593627931
1746614016.2537491,0.5397219657897949,-9.446614265441895,6.983144283294679
1746614016.3280284,0.04718181490898132,-8.584330558776854,7.258450984954835
1746614016.3824883,0.06588475406169891,-8.28149127960205,7.04103183746338
1746614017.2497184,0.3978300094604492,-7.4185752868652335,7.413198471069337
1746614017.3140924,1.3668036460876465,-5.404238700866698,4.978409290313722
1746614017.377045,0.9278956651687622,-7.539685249328612,6.322059631347657
1746614017.493302,1.7423888444900513,-9.535410881042479,8.469791412353517
1746614017.5648956,1.104366660118103,-8.752062797546385,8.064107894897463
1746614017.638941,1.258745551109314,-5.122701168060302,3.661183834075928
1746614017.7090592,2.224872589111328,1.215776801109314,-0.37277537584304826
1746614017.776363,2.9977059364318848,0.5316362977027894,0.6434013247489928
1746614017.8504875,1.466067910194397,-4.115636348724365,2.748538732528687
1746614017.8981438,2.305248737335205,-3.2956728935241695,2.7053735256195073
1746614017.9522955,1.4855003356933594,-4.016327857971191,3.5358483791351323
1746614017.9930935,1.8557847738265991,-6.119848728179932,3.4509787559509286
1746614018.0267327,2.4244089126586914,-5.494469165802002,3.467297315597535
1746614018.1060896,1.890448808670044,-8.404704093933105,6.442755699157716
1746614018.162498,1.5257419347763062,-9.056707382202147,7.967094898223878
1746614018.2011914,1.9256534576416016,-7.278347969055175,5.501482009887696
1746614018.2660866,2.211129665374756,-8.189942359924316,6.825950622558595
1746614018.3056774,1.4590330123901367,-9.339213371276854,7.8998122215271005
1746614018.3460484,0.7495235204696655,-10.173756599426268,7.680949211120606
1746614018.406344,0.8944332599639893,-10.49537181854248,6.840866565704347
1746614018.4626513,0.6424714922904968,-8.548309326171875,5.432420253753663
1746614018.495605,1.0708215236663818,-8.844648361206055,6.745413780212403
1746614018.5430925,1.5470285415649414,-9.4769811630249,7.431081771850587
1746614018.6236372,0.8492416143417358,-6.245371341705321,4.174123764038087
1746614018.6704695,0.03069998323917389,-6.148718833923339,5.879944324493409
1746614018.7553725,0.2918550372123718,-11.075511932373045,8.338759422302248
1746614018.7961793,-0.13988442718982697,-16.4348201751709,10.89155960083008
1746614018.9189065,0.4016672968864441,-14.98598289489746,12.121891021728517
1746614019.3041017,0.7794696092605591,-11.919787406921385,7.946310997009279
1746614019.617132,0.7136065363883972,-12.039608001708983,9.461610794067385
1746614019.6858046,1.2609403133392334,-10.039134979248045,8.689921379089357
1746614019.7642126,0.6331998109817505,-10.113364219665526,8.308375358581545
1746614019.8211915,0.41378772258758545,-7.602558612823485,6.581620693206788
1746614019.8715765,1.3042775392532349,-3.4936714172363277,3.746186256408692
1746614019.948862,1.2417865991592407,-6.776680946350097,4.853673934936524
1746614019.989503,0.9702354669570923,-11.815520286560057,9.292664527893068
1746614020.0376503,-0.05837172269821167,-9.45013904571533,7.516616344451905
1746614020.5637026,0.3235473334789276,-7.675454139709472,6.940590381622315
1746614021.3236122,2.0937864780426025,-7.954236984252929,6.276360034942628
1746614022.1835392,1.053209662437439,-9.275327682495115,7.470080375671388
1746614022.5610216,0.5804089903831482,-8.526777267456055,6.216367721557618
1746614023.2536333,1.2467734813690186,-8.433624267578125,6.784413814544679
1746614023.6020117,1.0893630981445312,-9.805459022521973,6.53742265701294
1746614024.0403645,0.4575023651123047,-7.043680667877196,5.270250797271729
1746614025.0320563,0.41568541526794434,-10.175083160400389,8.047047615051271
1746614025.3817503,1.9656375646591187,-12.497876167297362,10.815623283386232
1746614025.6187387,1.7982661724090576,-7.014906883239745,6.89651918411255
1746614025.832782,0.47800517082214355,-11.590111732482908,8.181295394897463
1746614026.169786,1.8021366596221924,-8.006844520568848,5.0982403755188
1746614026.6831353,1.5876506567001343,-5.231119155883788,4.531855583190919
1746614027.4729016,0.6781799793243408,-7.579596042633056,6.476394176483155
1746614028.045133,0.2774358093738556,-11.224338531494139,10.114529609680178
1746614028.2495606,0.329736590385437,-12.007049560546873,8.854457855224611
1746614028.3423479,0.2960519790649414,-10.835495948791502,8.921553611755373
1746614028.4094453,0.07268411666154861,-5.654637336730956,4.993348121643067
1746614028.5100443,-0.873711347579956,-7.150227069854735,8.019577026367188
1746614028.5855393,0.6681983470916748,-8.321776390075682,7.805986881256104
1746614028.6588652,0.2742016911506653,-4.574774742126464,4.0449867248535165
1746614028.7297852,-0.4064502716064453,-5.976390361785888,4.7495059967041025
1746614028.8133013,0.5059006810188293,-5.585978031158446,5.250244617462159
1746614028.9075053,-0.3221963047981262,-7.276388645172118,5.05556869506836
1746614028.9742093,-0.7406626343727112,-5.090974330902099,5.219221115112306
1746614029.054008,-0.5951163172721863,-5.5776376724243155,5.536325454711915
1746614029.1343353,1.049052119255066,-8.090993881225586,6.396625518798829
1746614029.2171917,0.2505759596824646,-9.207844734191893,8.072364807128908
1746614029.3023674,0.018376007676124573,-8.871073722839355,6.8005995750427255
1746614029.3876333,0.7600098848342896,-0.7801522612571716,0.40329647064208995
1746614029.4434743,1.1320295333862305,-6.435197830200194,7.256334304809571
1746614029.537049,-0.6842749118804932,-6.928451061248778,5.718853473663331
1746614029.599081,1.4790184497833252,-6.613901138305663,7.092820644378663
1746614029.6645808,1.0149624347686768,-8.75366497039795,5.63706922531128
1746614029.7286448,1.140242338180542,-9.78036117553711,6.8468666076660165
1746614029.7658079,1.459401249885559,-9.32667541503906,7.7751479148864755
1746614029.822775,1.4687016010284424,-6.990880489349364,6.450900077819825
1746614029.8700223,1.6774938106536865,-11.620727539062498,8.242131233215334
1746614029.9257817,2.5036563873291016,-9.907084465026854,8.723768234252931
1746614029.9865632,2.4826512336730957,-11.982561111450194,9.720859527587892
1746614030.0540266,1.928849458694458,-12.341070175170897,8.942621231079103
1746614030.1038866,1.9612135887145996,-8.681054115295408,7.601903438568116
1746614030.1955318,1.2102890014648438,-9.262722969055176,6.256780147552491
1746614030.2448246,1.1838655471801758,-7.404118537902831,4.945858001708985
1746614030.3308463,2.9005377292633057,-6.878636360168456,6.763700962066651
1746614030.3853416,1.6709637641906738,-7.521699905395507,6.749379634857179
1746614030.4250512,1.7834640741348267,-2.3301839828491206,4.324150562286377
1746614030.5261106,3.695392370223999,-1.574931621551513,4.943411350250244
1746614030.5606441,1.165910243988037,-4.40897512435913,4.917677879333497
1746614030.6561997,2.118614673614502,-5.600008487701415,5.846583366394044
1746614030.802335,2.6978211402893066,-5.983329772949218,7.071129322052003
1746614030.8637362,2.9554641246795654,-7.28075361251831,6.861430168151856
1746614031.768139,2.331538438796997,-7.261656761169433,4.654231548309327
1746614031.8340893,2.611717700958252,-6.408141613006591,4.631646633148194
1746614031.9033067,3.779651403427124,-6.665982246398925,6.802775859832765
1746614031.983806,3.6441824436187744,-9.411693572998047,5.346802711486817
1746614032.0636268,2.5312821865081787,-8.617560386657713,7.402813911437989
1746614032.1335588,3.5009257793426514,-9.209582328796385,7.4011292457580575
1746614032.2086182,2.1635396480560303,-9.77766418457031,8.230739593505861
1746614032.2866676,1.7153816223144531,-7.336455821990966,6.087478160858155
1746614032.3525946,2.6767795085906982,-8.811007499694824,6.338699340820313
1746614032.410328,2.0134878158569336,-11.24441623687744,7.769087791442873
1746614032.6109,2.207777500152588,-8.510836601257324,5.726426601409913
1746614032.6936204,2.9606268405914307,-7.363347053527831,6.5175113677978525
1746614033.157961,2.6668567657470703,-7.506448745727538,5.79568099975586
1746614033.999977,2.381809949874878,-7.448352336883544,7.00098752975464
1746614034.74616,0.7526286840438843,-11.660623550415037,8.780880928039553
1746614035.346781,1.320802092552185,-4.599175930023193,3.359974622726441
1746614035.8306317,0.25296884775161743,-9.447224617004393,8.579246520996096
1746614036.3952737,1.0605714321136475,-6.935307025909423,6.018929958343507
1746614037.1694279,0.6308093070983887,-9.219979286193846,9.88758182525635
1746614037.7868552,-0.20931100845336914,-9.719262123107908,8.277664184570314
1746614037.9020178,1.3963382244110107,-5.406029701232909,5.653925895690919
1746614037.9688168,0.5857393145561218,-1.5297664403915403,2.63979172706604
1746614038.053063,1.333223581314087,-1.611438751220703,2.6489782333374023
1746614038.2759833,-0.012990385293960571,-7.132507801055907,6.635048389434815
1746614038.3452363,0.6276428699493408,-5.990482807159423,6.896462917327882
1746614038.4126263,0.2493608593940735,-10.116758346557615,8.058705329895021
1746614038.4649374,0.5753386616706848,-10.453087806701658,9.209129333496096
1746614038.543689,-0.1532452255487442,-7.497671604156493,7.46260166168213
1746614038.5966847,0.6813076734542847,-5.826826572418212,5.11681079864502
1746614038.6935418,0.6870561838150024,-10.062769889831541,8.842717170715334
1746614038.7714584,-0.7308916449546814,-8.399003982543944,8.059160232543947
1746614038.8424592,0.28368961811065674,-10.331590652465819,9.032806396484377
1746614038.8992934,-0.19418469071388245,-8.93922710418701,8.857250213623049
1746614038.9605713,-0.20914605259895325,-10.048091888427733,8.07625198364258
1746614039.033787,0.41082102060317993,-8.133716583251953,6.383795738220216
1746614039.1407864,-0.7325466275215149,-4.39655303955078,4.088589668273927
1746614039.2006652,1.1276183128356934,-4.0918846130371085,4.961409091949464
1746614039.262541,0.5482426285743713,-3.2876605987548824,5.434067726135254
1746614039.3249671,0.2542009949684143,-6.959935665130614,5.583191394805909
1746614039.3661344,0.6048849821090698,-6.739670753479003,6.5738000869750985
1746614039.409372,0.7371649146080017,-8.371864318847654,8.535084724426271
1746614039.478242,-0.19850215315818787,-8.868165969848631,7.959868907928468
1746614039.513463,1.0158025026321411,-3.417805433273315,4.312588691711426
1746614039.5552073,2.550269842147827,-0.20223619043827004,4.237966060638428
1746614039.5939293,1.1844909191131592,-8.65623378753662,8.955595016479494
1746614039.6522784,0.46736350655555725,-1.0381983518600457,4.738597869873047
1746614039.6902027,-0.6809583902359009,-5.037798404693603,3.7526528835296635
1746614039.7804196,0.9221358895301819,-4.866487979888915,5.16343641281128
1746614039.8588476,-0.8597127199172974,-8.916781425476072,9.737096786499025
1746614039.9739451,-1.4478058815002441,-9.313147544860838,7.547617912292481
1746614040.0098445,-1.5927287340164185,-9.679163932800291,8.437856674194338
1746614040.1404126,-1.7376205921173096,-6.024164676666259,7.028566360473634
1746614040.1999075,-2.0356850624084473,-5.153777599334716,6.289696216583253
1746614040.2974582,-3.9469668865203857,-10.25223922729492,8.682217597961428
1746614040.430168,-4.904300689697266,-15.383328437805174,11.171250343322756
1746614040.5017872,-3.924241781234741,-20.538524627685543,16.279712677001957
1746614040.635872,-2.692206621170044,-14.616326332092283,10.82267475128174
1746614040.6893222,-2.297487258911133,-11.836487770080566,6.721833229064943
1746614041.0896983,-3.2570931911468506,-9.62345504760742,7.960632801055909
1746614041.1780019,-2.7969436645507812,-7.94574213027954,7.08456039428711
1746614041.252564,-2.4588470458984375,-12.759540557861326,9.70793151855469
1746614041.290377,-1.5237665176391602,-13.624130249023436,11.441424369812013
1746614041.3358471,-2.1519176959991455,-14.377214431762694,10.36478900909424
1746614041.5204132,-1.8307703733444214,-6.47359275817871,6.865347862243653
1746614041.58277,-2.6553735733032227,-8.44332695007324,7.527636528015138
1746614041.6379156,-1.4347258806228638,-8.224825859069822,7.748371124267579
1746614041.6853561,-0.7216082811355591,-18.067333221435543,16.8423023223877
1746614041.7459822,-1.2016165256500244,-15.051781654357908,11.919139862060549
1746614041.7791188,-1.410596489906311,-5.926260471343993,4.780510902404786
1746614042.1143713,-0.11016471683979034,-3.5244433879852295,0.7007408142089848
1746614042.1948,-2.0221171379089355,-11.61615467071533,9.31631374359131
1746614042.627526,-1.4389514923095703,-10.544161796569822,7.803230285644532
1746614042.7703426,-0.3312588036060333,-3.7312228679656974,6.613910675048829
1746614043.7195632,0.019079133868217468,-11.97058582305908,8.493809700012209
1746614044.4695847,-0.42275750637054443,-6.372783660888671,6.758644580841065
1746614044.807866,-1.6689338684082031,-11.977735519409178,10.190436363220217
1746614044.8844538,-0.6949989199638367,-8.435705184936523,6.298099040985108
1746614044.945771,-1.47701096534729,-6.741151809692382,6.0723352432250985
1746614045.0370617,-0.4066678285598755,-11.941370964050291,9.026637077331545
1746614045.1169739,-1.082699179649353,-9.834506988525389,8.224892616271974
1746614045.169337,0.06564169377088547,-10.686082839965819,7.983484745025636
1746614045.2380908,-0.5788601636886597,-8.610427856445312,6.28365707397461
1746614045.719615,0.27994588017463684,-6.265327930450439,6.249749183654786
1746614046.7930536,1.4034113883972168,-6.279437065124511,5.455687999725343
1746614047.2016883,0.8131867051124573,-5.016601562499999,4.93788766860962
1746614047.7699556,0.789948582649231,-7.52638816833496,5.579487323760987
1746614047.8518298,1.0306642055511475,-7.271555423736571,5.508101463317872
1746614047.9227223,0.18463757634162903,-7.666203975677489,5.929381847381593
1746614048.0093188,-0.17251653969287872,-7.623619556427001,6.431983470916749
1746614048.0768623,0.5479544401168823,-6.7496347427368155,4.467998981475831
1746614048.1347454,0.7016791105270386,-7.137727737426757,6.301110744476319
1746614048.2813454,-0.5872805118560791,-7.041849136352538,6.967830181121827
1746614048.3564758,-0.19096562266349792,-8.423018455505371,6.134445667266847
1746614048.4413059,0.7561697959899902,-6.8495092391967765,6.071578979492188
1746614048.5005116,-0.6627895832061768,-7.105961799621581,6.613824367523194
1746614048.5577064,0.5504521131515503,-6.893813133239745,6.380289554595948
1746614048.608696,0.2144116759300232,-7.9801082611083975,8.304240226745607
1746614048.6661587,-0.7462835311889648,-6.557345390319823,6.21060609817505
1746614048.7355819,0.6198717355728149,-6.125219821929931,5.329007625579835
1746614048.7908885,0.3743512034416199,-9.312538146972654,8.10713577270508
1746614048.8578467,0.32126063108444214,-8.86876583099365,7.309895038604737
1746614048.9414136,0.3585541248321533,-8.199342727661131,8.169408798217775
1746614049.0149043,-0.14583110809326172,-9.560309410095213,9.206507682800295
1746614049.0554454,-0.8087691068649292,-9.592363357543944,9.061836242675783
1746614049.1282458,0.6792711019515991,-6.489444732666015,5.829798221588136
1746614049.1688936,0.3962441682815552,-6.440918445587157,7.382016181945802
1746614049.2254574,-1.319303274154663,-10.421616554260252,8.30321788787842
1746614049.2886305,1.0877573490142822,-4.980738639831542,5.4229092597961435
1746614049.3425984,0.18763986229896545,-5.774942398071288,6.91443681716919
1746614049.4014335,-0.48687148094177246,-7.366304874420165,6.354297637939454
1746614049.4599414,1.5142383575439453,-2.6515848636627193,3.5792965888977055
1746614049.4999228,0.23976752161979675,-7.242477893829345,6.640105724334718
1746614049.5358584,0.1446659415960312,-9.638124465942381,9.277512550354006
1746614049.5785208,-0.12979599833488464,-9.999855041503904,7.901392459869386
1746614049.6658328,0.7147267460823059,-7.259626388549804,7.230235099792481
1746614049.818377,-1.0046496391296387,-9.638145446777342,9.511756896972658
1746614049.8487668,0.1663939654827118,-9.629759788513182,7.6601905822753915
1746614050.3673851,-0.8109690546989441,-14.667557716369627,12.364254951477053
1746614051.4004674,-2.783329963684082,-17.887010574340817,15.178176879882814
1746614052.070142,0.5401827692985535,-13.207165718078612,11.769832611083986
1746614052.5217302,0.5647672414779663,-10.779570579528807,10.107180595397951
1746614052.7928622,0.2812501788139343,-12.894829750061033,11.562140464782717
1746614053.2403605,0.18763288855552673,-3.8852767944335933,4.96346664428711
1746614053.6599147,0.9231759905815125,-11.115696907043455,7.553535938262941
1746614053.7935898,0.15180708467960358,-8.799312591552734,6.741779804229737
1746614053.855846,0.8850409984588623,-4.011182308197021,4.053331375122071
1746614053.9151149,1.1542000770568848,-4.89943504333496,4.017715930938722
1746614053.980124,1.2931663990020752,-4.789381027221679,5.859652519226075
1746614054.050404,0.8296207785606384,-6.064656257629394,4.605756282806397
1746614054.105851,0.4386313259601593,-7.643211364746093,7.226356983184815
1746614054.1787477,1.1738654375076294,-5.109939575195312,6.2106971740722665
1746614054.2607267,1.062638521194458,-5.27356719970703,4.3370704650878915
1746614054.333487,0.8987041711807251,-6.293026447296142,5.5796289443969735
1746614054.390344,1.187270164489746,-5.158902645111083,5.725104808807374
1746614054.4506705,1.1986757516860962,-4.438711643218993,3.6676263809204106
1746614054.5267618,0.39633381366729736,-7.452961444854735,7.166228771209718
1746614054.5933816,0.371504008769989,-6.0335326194763175,6.511520862579347
1746614054.655649,0.7795054912567139,-6.892365932464599,5.353731632232667
1746614054.712562,-0.23280853033065796,-7.221815586090087,6.33744764328003
1746614054.7753787,0.16766142845153809,-6.722414970397948,6.184454917907716
1746614056.0520875,0.09504542499780655,-10.909987449645994,8.906921386718752
1746614056.8629756,-0.07868720591068268,-8.090209007263184,7.09284257888794
1746614057.1737256,0.62295001745224,-7.3844003677368155,6.78918743133545
1746614058.1719327,0.5523626804351807,-7.671503543853759,7.066077232360841
1746614058.787427,0.5011551380157471,-8.612450599670408,7.511795043945313
1746614059.397591,-1.4637258052825928,-13.745101928710936,11.145727157592775
1746614059.8174694,-0.589729905128479,-1.714075446128845,2.225534677505493
1746614060.7514906,-0.4792880415916443,-7.479445457458495,6.863518238067628
1746614061.4925542,-0.5797113180160522,-8.06644344329834,6.124871253967286
1746614062.222269,-1.21159827709198,-7.451272964477538,6.304979801177979
1746614062.7353396,-0.15819138288497925,-6.191615104675292,6.736846923828126
1746614062.8949778,-0.3073654770851135,-8.9769229888916,7.83497190475464
1746614063.163557,0.3980715870857239,-12.131441116333006,9.625732421875002
1746614063.2184188,0.3275716304779053,-7.29781150817871,8.293345451354982
1746614063.2810051,0.09687081724405289,-8.394781112670897,8.484166145324709
1746614063.347886,-0.11961926519870758,-7.34047508239746,7.66957187652588
1746614063.399716,0.6869999170303345,-18.506778717041012,15.78431034088135
1746614063.4465237,-0.9277073740959167,-10.038416862487793,6.766813278198243
1746614063.5256274,-2.244265079498291,-17.352443695068356,15.021462440490724
1746614063.5784066,-1.835540771484375,-12.019703865051268,9.810209274291994
1746614063.6298254,-0.9963366389274597,-9.470210075378416,8.15908718109131
1746614063.6896262,-0.23903964459896088,-8.592384338378904,8.504139900207521
1746614063.7557719,-0.5570891499519348,-10.660273551940916,9.556268692016603
1746614063.802856,-0.6620637774467468,-10.701281547546385,8.676917076110842
1746614063.8616219,-0.13696758449077606,-5.290149211883544,5.856083393096925
1746614063.9259868,0.3280503749847412,-5.213924884796142,5.556010246276856
1746614063.9845865,-0.098085418343544,-12.152345657348631,11.726378440856935
1746614064.024609,-0.006493717432022095,-10.06569480895996,8.461606025695803
1746614064.0828545,-0.0553668737411499,-6.4356369972228995,5.8093018531799325
1746614064.1434503,0.011017486453056335,-4.133705615997314,3.743097305297852
1746614064.1887279,0.7634767889976501,-3.008259534835815,3.034549474716187
1746614064.2393963,1.1513844728469849,-1.8666515350341795,1.0947976112365725
1746614064.280796,0.5007320046424866,-4.157534122467041,2.9671792984008794
1746614064.3327281,0.24593940377235413,-4.0929622650146475,5.236473083496095
1746614064.4475641,0.097321517765522,-4.552637577056884,4.5027713775634775
1746614064.5503,0.3571033179759979,-5.189491271972655,6.483847618103028
1746614064.6050727,0.4599061608314514,-4.0180649757385245,6.500679016113282
1746614064.7021527,0.6814292073249817,-5.572810649871825,6.627116203308106
1746614064.7972395,1.3885836601257324,-6.758613109588622,6.367765903472901
1746614064.9130905,0.6193856000900269,-9.570600509643553,8.355781555175783
1746614065.0102742,0.66439288854599,-8.39061450958252,6.688520431518556
1746614065.0756016,0.5888062715530396,-8.342299461364744,7.417021274566651
1746614065.200357,0.8778523802757263,-7.723580837249755,7.278295516967774
1746614065.4569674,0.715006947517395,-6.323785781860351,6.210237503051759
1746614065.5097344,0.9835447072982788,-7.845259189605712,7.090270519256593
1746614065.555795,0.4303853213787079,-7.179746627807616,6.8257131576538095
1746614065.5946434,0.48284709453582764,-6.340573787689208,6.637931346893311
1746614065.659547,0.5463734865188599,-6.703638076782226,6.943903446197511
1746614065.7488184,0.7504610419273376,-8.633910179138182,8.19446659088135
1746614067.2312708,0.8511762022972107,-6.232627391815185,5.133812427520753
1746614067.8591542,-0.5663766860961914,-10.061289787292479,9.094713211059572
1746614068.729219,-0.3773841857910156,-7.311583518981933,5.476794242858888
1746614069.025251,0.09570784866809845,-8.280146598815916,8.048546791076662
1746614069.5630996,-0.11424899101257324,-8.726173400878906,6.534672260284425
1746614069.9565642,-0.0027578771114349365,-7.374833583831786,6.7071876525878915
1746614070.14603,-0.9765169024467468,-16.19477653503418,11.166008949279787
1746614070.578667,-0.7117091417312622,-9.30271530151367,8.701402664184572
1746614071.4734056,0.9821522831916809,-4.769078254699706,4.864949703216554
1746614072.0930557,2.682434320449829,-5.6073055267333975,4.59693479537964
1746614072.4626563,2.731628894805908,-5.28584861755371,4.09736728668213
1746614072.7873368,1.7085065841674805,-8.969030380249023,6.3914809226989755
1746614073.3892379,0.6269773244857788,-7.195927619934081,5.016050815582276
1746614073.7811718,-0.331157386302948,-13.006296157836912,11.974739074707033
1746614073.8333566,-1.6854381561279297,-13.351510047912596,10.636604309082033
1746614073.905436,-1.1846826076507568,-12.979922294616697,9.461833000183107
1746614073.9796689,0.05023374408483505,-14.865404129028319,12.836653709411623
1746614074.0640287,-1.2700008153915405,-17.221508026123043,15.457738876342775
1746614074.135922,-2.038081645965576,-19.5208568572998,15.630707740783693
1746614074.2135816,-1.0196222066879272,-18.722797393798825,14.725600242614748
1746614074.2726746,-0.3981029987335205,-17.493820190429684,15.146007537841799
1746614074.3452635,-1.300230622291565,-14.466529846191404,11.465355873107912
1746614074.4219418,0.816849946975708,-10.478219032287596,9.620057106018068
1746614074.4977293,0.40283429622650146,-8.527132987976072,7.915545940399171
1746614074.5612798,-0.29677385091781616,-6.879313468933105,5.702275276184083
1746614074.6305978,0.7068930864334106,-7.706377983093261,6.355414390563966
1746614075.073301,-0.22923444211483002,-9.632527351379393,7.577840328216554
1746614076.1109712,1.332274079322815,-6.810260772705077,5.6822805404663095
1746614076.7757456,0.06607384979724884,-5.477594852447509,5.942316532135011
1746614077.2729704,2.09928822517395,-12.166870117187498,10.651190757751467
1746614077.4605439,0.6981436610221863,-10.566389083862303,9.332292556762697
1746614077.5144863,2.0778939723968506,-7.2442026138305655,8.298724174499512
1746614077.5707843,1.2065825462341309,-8.867233276367186,7.527574539184571
1746614077.6296754,2.021583318710327,-6.467374324798583,6.095492839813233
1746614077.69273,2.192755699157715,-4.795777797698974,5.630382537841798
1746614077.7438247,1.3422330617904663,-4.909567356109618,6.061798572540284
1746614077.7945373,1.1281335353851318,-6.745575428009032,6.162626266479493
1746614077.849625,0.3903545141220093,-8.221582412719725,7.63360357284546
1746614077.910381,0.5034076571464539,-10.87683582305908,8.365255355834963
1746614077.9781058,0.716220498085022,-7.075457572937011,6.862831115722657
1746614078.041955,-0.03293988108634949,-7.09491205215454,6.295109748840333
1746614078.1079829,-0.2786490321159363,-9.575950622558592,8.295244216918947
1746614078.1720636,1.45952570438385,-6.6074438095092765,6.701173782348634
1746614078.2463088,1.2951794862747192,-7.121719360351562,7.146939277648927
1746614078.3073673,-0.05217015743255615,-10.767564773559569,9.333293914794924
1746614078.3823695,0.6606079339981079,-8.247708320617674,7.868752956390382
1746614078.4386365,0.8573145270347595,-7.842630386352538,7.526419639587403
1746614078.478588,-1.452351689338684,-10.466922760009764,9.244567871093752
1746614078.5501077,-2.0710723400115967,-14.31781768798828,12.120577812194826
1746614078.5939095,-0.18654824793338776,-11.40694236755371,10.445021629333498
1746614078.628978,0.5148758292198181,-11.441009521484373,9.143867492675783
1746614079.3783884,0.04704996943473816,-12.019619941711424,9.699530601501467
1746614079.4380481,-0.8040440082550049,-10.883999824523924,8.368022918701174
1746614079.4881637,0.25268667936325073,-7.293214797973632,7.551363468170167
1746614079.5414124,0.508588433265686,-7.880195140838622,7.392485141754151
1746614079.6049445,-1.1760083436965942,-9.962987899780272,7.896860599517823
1746614079.7005942,0.4260413646697998,-9.39375877380371,7.425611495971681
1746614079.7506952,0.44032636284828186,-9.667077064514158,7.755779266357423
1746614079.8141055,-0.04277411103248596,-6.640697002410888,6.967546463012696
1746614079.8563697,-0.061256974935531616,-8.276256561279295,7.872844219207765
1746614079.9067056,-0.5842280387878418,-6.808678627014159,6.832265853881837
1746614080.05751,-1.0500571727752686,-6.8319354057312,6.495427131652833
1746614080.1162398,-0.39875006675720215,-9.851197242736815,7.975987911224366
1746614080.218051,0.528997540473938,-8.442391395568846,8.156119346618654
1746614080.2781904,0.39404577016830444,-8.88344097137451,7.775964260101319
1746614080.3268998,-0.03254374861717224,-8.75027561187744,7.340384960174561
1746614080.3664422,-0.3807637691497803,-8.622026443481444,8.261511802673342
1746614080.4144907,0.07912656664848328,-8.870774269104002,7.930385112762452
1746614080.4720244,0.24009612202644348,-10.119265556335447,8.66617012023926
1746614080.5226815,-0.6507086157798767,-9.407540321350096,8.073281288146974
1746614080.5764906,-0.3189322054386139,-8.399520874023438,6.220960617065431
1746614080.6328354,-0.533989667892456,-7.034159660339355,5.9963650703430185
1746614080.6766722,1.0118517875671387,-6.9326391220092765,7.660165309906007
1746614080.7060003,1.1242201328277588,-7.2414207458496085,7.8547964096069345
1746614080.8233001,1.3608064651489258,-7.313871383666991,7.12627124786377
1746614082.7407093,1.2813162803649902,-8.146316528320312,6.2308387756347665
1746614083.616073,1.779532551765442,-8.549240112304688,5.547237396240235
1746614084.5351682,1.1230518817901611,-6.120335578918456,7.248015880584718
1746614084.645572,0.9338843822479248,-5.815200805664062,6.2528090476989755
1746614084.7067108,-0.6866105794906616,-8.465531349182129,6.507497310638429
1746614084.781384,0.498920202255249,-7.341642379760741,6.82969617843628
1746614084.8445752,0.9645558595657349,-6.175560951232909,6.905120849609376
1746614084.925191,-0.30134791135787964,-7.802258491516112,6.644404888153077
1746614085.002158,1.3429126739501953,-6.7942185401916495,6.605360984802247
1746614085.0615954,0.9737638235092163,-5.984560966491698,6.343829154968263
1746614085.1305559,1.0235499143600464,-8.086000442504881,8.545258522033693
1746614085.2065547,-0.029504448175430298,-9.359967231750487,7.779057025909425
1746614085.2665646,0.06541165709495544,-5.868367195129394,5.909844398498536
1746614085.3251607,0.9571119546890259,-4.137489795684814,5.25226926803589
1746614085.3976717,0.6140834093093872,-5.088233470916747,6.418907165527345
1746614085.4627488,-0.2869269847869873,-9.446766853332518,7.330480575561524
1746614085.5294876,1.0676546096801758,-7.513610839843749,7.470805168151856
1746614085.6082547,0.9849957227706909,-6.710531711578368,7.441923141479493
1746614085.693736,-0.7460060715675354,-8.378387451171875,6.980937480926515
1746614085.797907,-0.7434618473052979,-9.10421562194824,7.3784732818603525
1746614085.8499076,0.24921053647994995,-9.2628698348999,7.636667251586915
1746614085.9095404,0.7602857351303101,-9.082983970642088,7.720818996429444
1746614086.1131847,0.5224889516830444,-9.012033462524414,7.192020893096925
1746614086.1904073,0.0659690648317337,-10.33020782470703,8.367055892944338
1746614086.2446196,0.7827202677726746,-7.948652744293212,6.970996379852296
1746614086.2998314,0.3032432198524475,-8.924309730529783,7.578810691833497
1746614086.3409045,0.5658904314041138,-7.791196346282958,6.207084178924561
1746614086.4047537,-0.7197937369346619,-9.553026199340819,7.731153488159181
1746614086.4532804,0.7063168883323669,-7.267714977264403,6.612785816192628
1746614086.5013814,0.9164488911628723,-5.967824459075927,6.408151149749757
1746614086.5573945,0.09020541608333588,-10.030636787414549,7.951519966125489
1746614086.6135259,0.3704568147659302,-7.007246494293212,7.465572357177735
1746614086.6713052,0.7068036198616028,-5.326387882232665,5.8234901428222665
1746614086.757306,0.6701189279556274,-4.764342784881591,5.801283836364747
1746614086.7971406,2.7088894844055176,1.0343792438507085,2.800480842590332
1746614087.7109044,0.7062305212020874,-2.6285839080810542,3.1800189018249516
1746614088.5521739,-0.3475712537765503,-7.87299346923828,6.161597728729249
1746614088.6148038,1.0289828777313232,-7.659523487091064,6.666451930999757
1746614088.678074,0.9104583263397217,-8.282400131225586,6.916101932525636
1746614088.748699,0.15674807131290436,-8.20551872253418,6.3047828674316415
1746614088.848432,0.8960760831832886,-7.911160945892333,6.212323188781739
1746614088.9382913,0.8797365427017212,-8.694387435913084,7.626533031463624
1746614089.0118482,0.11359194666147232,-9.609684944152832,6.6319546699523935
1746614089.1013873,1.0107892751693726,-9.14248466491699,7.568259239196778
1746614089.1559508,1.2037055492401123,-8.589075088500977,7.074617862701417
1746614089.233467,0.8621814250946045,-8.441943168640137,7.114439487457276
1746614089.2997122,1.4671108722686768,-6.943302631378173,6.729609489440919
1746614089.3657324,0.03227962553501129,-7.707556724548339,6.341511726379395
1746614089.4526236,1.8011549711227417,-6.114117145538329,6.453337192535401
1746614089.5135539,1.6266310214996338,-6.403625965118407,6.16297483444214
1746614089.5961175,1.5768330097198486,-8.726877212524412,7.954713821411134
1746614089.6515505,1.3627591133117676,-9.78480529785156,8.58792018890381
1746614089.709016,-0.23133166134357452,-9.77297019958496,7.4030237197875985
1746614089.7771888,1.1569852828979492,-6.177478313446044,6.47585678100586
1746614089.8255255,1.3244584798812866,-7.270403861999511,6.117963790893556
1746614089.8799543,1.0154904127120972,-8.02106761932373,6.67328977584839
1746614089.9466712,0.5368847846984863,-8.963373184204102,6.852108001708985
1746614090.0172355,0.8010844588279724,-10.206092834472654,7.506456375122071
1746614090.0692477,0.42695796489715576,-10.543401718139647,7.563958644866944
1746614090.1424317,0.6213330626487732,-8.713725090026855,6.68895435333252
1746614090.1985183,0.6277835369110107,-8.274017333984375,6.370671272277833
1746614090.2671578,1.5855132341384888,-8.104802131652832,5.676828861236573
1746614090.3035681,1.433720588684082,-6.71459674835205,6.377538681030274
1746614090.3384032,1.1988327503204346,-6.228050708770751,6.002838611602784
1746614090.4058845,0.6384820342063904,-5.598433017730712,5.2660608291625985
1746614090.4538624,1.6538063287734985,-6.368017673492431,5.750707626342774
1746614090.5586567,0.3998207449913025,-6.75973081588745,6.218177318572999
1746614090.6271455,1.1342512369155884,-8.221898078918457,6.331764221191407
1746614090.7389224,0.8901708126068115,-7.4828195571899405,5.80738401412964
1746614090.818661,1.4861186742782593,-7.322330474853515,5.227698802947999
1746614090.9296553,0.6398605108261108,-8.998815536499023,6.664464950561524
1746614091.049405,1.4265327453613281,-5.7468833923339835,6.7800002098083505
1746614091.1317165,1.0939995050430298,-8.072988510131836,6.633097171783448
1746614091.2422945,1.1231307983398438,-6.0230073928833,6.390708923339845
1746614091.3071413,0.2878730297088623,-7.77889585494995,8.033671379089357
1746614093.07137,1.3816853761672974,-7.058640956878661,6.692532539367677
1746614093.951364,1.6595938205718994,-9.113900184631348,6.846208095550538
1746614094.0243752,1.8929256200790405,-7.45122480392456,5.911537647247315
1746614094.0757465,2.0241611003875732,-9.765402793884277,6.503550052642823
1746614094.132281,1.6155574321746826,-7.524001598358153,4.659311294555665
1746614094.2005281,2.4766013622283936,-6.284949302673339,7.309538364410401
1746614094.281517,1.5614013671875,-7.617935180664062,5.762618064880372
1746614094.345185,2.6378793716430664,-6.419904232025146,7.167257308959962
1746614094.412842,1.62028968334198,-7.742090702056884,7.52184009552002
1746614094.4833324,1.4619944095611572,-7.770628929138183,5.781201839447022
1746614094.5565865,1.2449885606765747,-7.063213348388671,6.058248043060304
1746614094.6215637,2.159261703491211,-6.125890254974364,7.233842372894288
1746614094.6821618,1.860217571258545,-5.738420963287353,6.8130521774292
1746614094.7601814,2.0103139877319336,-5.614952087402343,6.158024787902833
1746614094.8210528,2.1232190132141113,-4.8592867851257315,4.2599220275878915
1746614094.8836997,2.3768229484558105,-4.397136211395263,6.680890560150147
1746614094.9589503,1.0351353883743286,-3.0352828502655025,2.728080749511719
1746614095.0233438,0.11913792043924332,-7.2847909927368155,5.593582153320313
1746614095.0772495,1.14137601852417,-6.598827838897704,5.386253356933595
1746614095.115643,0.8971846103668213,-8.36788749694824,7.491894721984864
1746614095.1569219,1.4558907747268677,-5.984984874725341,7.857048511505128
1746614095.6715238,0.7255680561065674,-10.046633720397947,9.688149452209474
1746614096.2468362,1.3864308595657349,-6.794952869415282,8.142104148864746
1746614097.096801,0.19114595651626587,-8.813617706298826,7.50328016281128
1746614097.8244433,0.04444582760334015,-8.69198703765869,7.298250675201417
1746614098.3183856,-0.1569502055644989,-6.44073724746704,6.7040162086486825
1746614098.6369696,0.573094367980957,-7.997212886810302,8.350623130798342
1746614099.3606932,1.073900580406189,-8.007590293884277,6.780466556549073
1746614099.7282012,0.6284120082855225,-7.99668788909912,7.974988460540772
1746614100.1925836,0.5468841195106506,-7.190703392028808,7.871918678283692
1746614100.6330903,1.209262490272522,-5.07128095626831,5.281996250152589
1746614100.762056,-0.6455760598182678,-6.098753929138183,3.940486431121827
1746614100.8379753,-0.40662747621536255,-8.71933078765869,11.042125701904299
1746614100.892031,1.1278315782546997,-5.57303237915039,6.47340488433838
1746614100.9628093,-0.5859054327011108,-8.577040672302244,7.818256378173829
1746614101.053092,0.48913007974624634,-9.173144340515135,8.654075622558596
1746614101.1256497,0.20755252242088318,-8.178393363952635,8.704078674316408
1746614101.2132173,1.1174719333648682,-7.621444225311278,7.617200851440431
1746614101.2814546,0.2007809281349182,-4.094881057739257,6.402668476104737
1746614101.3549736,0.8832295536994934,-3.2981638908386226,4.16552209854126
1746614101.4145963,-0.006528869271278381,-7.92603588104248,9.74641799926758
1746614101.4864728,-0.18330508470535278,-4.321483135223389,2.9300141334533696
1746614101.5693078,-0.028901711106300354,-7.036629199981689,6.487122535705567
1746614101.6551337,0.6629326343536377,-7.435871601104735,7.672144412994386
1746614101.7226253,0.29966503381729126,-9.04257297515869,10.46346187591553
1746614101.7951305,0.7326046824455261,-8.813000679016112,8.094067573547365
1746614101.869961,0.2907612919807434,-9.477250099182127,7.522737979888917
1746614101.9551015,0.961384117603302,-8.032826423645018,9.327830314636232
1746614102.036081,-0.6036648750305176,-8.340678215026854,7.9123196601867685
1746614102.0890322,1.30624258518219,-7.348374366760253,6.566483020782472
1746614102.1473806,-0.9760140180587769,-11.341423988342283,8.525097846984865
1746614102.1949139,-0.14941364526748657,-10.846601486206055,7.057978153228761
1746614102.243345,0.7420132160186768,-6.780579090118407,7.131554603576661
1746614102.3082116,-0.47149398922920227,-6.8427062034606925,3.644550800323487
1746614102.343805,1.3935145139694214,-7.4777746200561515,7.944113731384278
1746614102.3893123,0.7830373048782349,-5.277754783630371,3.538948774337769
1746614102.468643,0.7595351934432983,-10.201967239379881,8.730518341064455
1746614102.546171,0.535999059677124,-9.808290481567381,8.785357475280763
1746614102.584228,0.391393780708313,-10.706579208374022,7.695172786712647
1746614102.6570315,0.37464916706085205,-11.38471221923828,10.395360946655275
1746614102.733449,0.892072856426239,-8.513026237487793,6.393574714660645
1746614102.8093705,0.7306060791015625,-8.607268333435057,7.822526454925538
1746614102.8961895,1.422410488128662,-7.956353187561034,7.6074795722961435
1746614102.9978082,1.703490972518921,-6.20845603942871,6.382265090942384
1746614103.1032007,0.9043226838111877,-7.310613155364989,6.237199306488038
1746614103.1645863,0.30361616611480713,-11.235874176025389,8.811218261718752
1746614103.284518,-0.022436991333961487,-8.554927825927734,6.69416904449463
1746614103.3563097,0.596846878528595,-8.143668174743652,6.515826702117921
1746614103.4517565,0.036387279629707336,-10.755324363708494,8.03816604614258
1746614103.6451888,0.9754409790039062,-7.417371749877929,6.933794498443604
1746614103.7081108,1.5423924922943115,-2.3258078098297115,4.16699743270874
1746614103.8016155,1.2163445949554443,-6.589921951293944,6.571350574493409
1746614103.8447702,0.9567740559577942,-7.7524094581603995,7.390037536621095
1746614103.9811282,2.3277900218963623,-5.951868057250976,5.481182575225831
1746614104.0775595,1.6056842803955078,-5.99532651901245,5.555443763732911
1746614104.1461015,1.4539607763290405,-6.670048236846923,6.3806095123291025
1746614104.2316973,1.8297337293624878,-7.364020824432372,6.425091743469239
1746614104.4131126,1.404235601425171,-7.468072891235351,6.556582927703858
1746614104.44929,1.8396342992782593,-6.49045181274414,7.04005527496338
1746614104.5581608,1.1632312536239624,-9.23487377166748,6.5562782287597665
1746614104.618,1.3449125289916992,-7.866989612579345,7.29005002975464
1746614104.7338576,1.2853453159332275,-7.866623878479003,5.971671104431153
1746614104.8290296,2.278676748275757,-6.071332454681396,6.439655303955079
1746614104.9023895,1.8599852323532104,-5.962171077728271,5.874433517456056
1746614105.0286522,1.5594505071640015,-6.389699459075927,4.598490715026856
1746614105.3853095,1.418803095817566,-8.55160140991211,6.773710250854493
1746614106.162717,1.5301778316497803,-7.1085824966430655,5.899271965026856
1746614107.1166308,3.40498948097229,-4.798361301422118,5.399793148040772
1746614107.7664526,-0.8853847980499268,-8.123340606689453,5.269550800323487
1746614107.8752553,-0.22793719172477722,-7.947305679321288,5.767601490020753
1746614107.9345036,1.8211623430252075,-4.062924861907958,5.519516468048097
1746614108.0133686,0.23999518156051636,-7.123639583587646,3.833240270614625
1746614108.0952284,0.17629489302635193,-10.932640075683592,7.323104381561281
1746614108.1565642,-0.08564996719360352,-9.70827865600586,5.645160675048829
1746614108.218016,-0.15932950377464294,-3.9768409729003897,8.058941841125488
1746614108.2945275,1.3895803689956665,-6.414090156555175,8.303888320922852
1746614108.3562317,-1.2392451763153076,-8.374472618103026,8.447456359863283
1746614108.436121,1.5258392095565796,-4.666061878204345,7.639778137207032
1746614108.5050514,2.240396022796631,-4.6854829788208,6.899802684783936
1746614108.5648994,1.1585193872451782,-8.456109046936033,8.527527809143068
1746614108.6237173,1.2231619358062744,-8.72040271759033,10.307203292846681
1746614108.7047358,0.2027912735939026,-8.949483871459961,6.05791997909546
1746614108.7851672,1.1631898880004883,-6.9172043800353995,6.601923942565919
1746614108.8598678,2.3810067176818848,-4.6620917320251465,3.6175160408020024
1746614108.913101,-0.21041887998580933,-8.670356750488281,6.248144149780274
1746614108.9739823,-0.3889114260673523,-10.31066608428955,7.252081871032716
1746614109.015766,-0.784816324710846,-9.958860397338865,7.599256038665772
1746614109.642618,1.9444549083709717,-5.742253780364989,8.121594429016113
1746614110.2585897,-0.20878063142299652,-9.175547599792479,7.63977336883545
1746614111.0443192,-1.5177019834518433,-7.194436073303222,5.320862293243409
1746614111.778533,0.41478317975997925,-3.3094506263732906,4.700886249542236
1746614111.9620152,-0.27366405725479126,-5.662493705749511,5.811764717102052
1746614112.0819473,-0.1485927402973175,-6.89917230606079,8.009713172912598
1746614112.158669,-1.1656646728515625,-12.125234603881834,10.115018844604494
1746614112.3037217,-0.7293084859848022,-13.609411239624022,10.467061996459963
1746614112.4407477,0.17579790949821472,-7.2911410331726065,6.053550243377686
1746614112.5149705,0.11569568514823914,-7.821017265319823,7.932185173034669
1746614112.5934308,-0.7292115688323975,-9.376752853393555,6.633557796478272
1746614112.680983,-0.1484222114086151,-9.267934799194334,7.561903476715089
1746614112.7940738,0.27769017219543457,-7.217231273651122,5.897386550903321
1746614112.8794458,-0.0975838303565979,-8.821176528930664,5.589829444885255
1746614112.9583733,-0.8749242424964905,-12.347566604614256,8.22940254211426
1746614113.0421665,-0.9790496826171875,-10.931750297546385,7.922552585601808
1746614113.133735,-0.10278907418251038,-8.66025638580322,7.379744529724122
1746614114.064225,0.5977317690849304,-8.113183975219725,7.56440019607544
1746614114.8617442,0.21798790991306305,-8.036577224731445,5.73851490020752
1746614115.8034365,1.0332272052764893,-7.93928575515747,5.4953017234802255
1746614116.7624333,1.4242088794708252,-7.4867773056030265,6.8794193267822275
1746614116.9575894,1.7386016845703125,-5.314161300659179,5.585350036621095
1746614117.217333,0.5705372095108032,-7.8859472274780265,5.313842296600343
1746614117.3625176,0.9269174337387085,-7.304753303527831,5.944202899932862
1746614117.5685022,-0.33695897459983826,-9.017223358154297,6.3800930976867685
1746614117.866689,-0.6670510768890381,-8.75271987915039,7.1532349586486825
1746614118.0488706,0.07943903654813766,-8.898749351501463,8.13357448577881
1746614118.340529,-0.20981000363826752,-10.077215194702147,9.354504585266115
1746614118.5376976,-0.04470847547054291,-6.738175392150878,5.849956512451173
1746614118.7783198,-0.4360352158546448,-8.312774658203123,7.95458745956421
1746614118.9278798,0.12079431861639023,-11.5269079208374,9.556651115417482
1746614119.120789,-1.0078216791152954,-12.29533004760742,10.376987457275392
1746614119.2257767,0.5836257934570312,-9.456384658813475,9.29056739807129
1746614119.3015323,0.5927655100822449,-7.232727527618407,7.892738819122315
1746614119.3566425,0.209712415933609,-8.5172758102417,6.488669872283936
1746614119.416143,-0.5024135112762451,-10.060980796813963,9.065163612365724
1746614119.4919095,1.3163633346557617,-11.696722030639647,10.653796195983888
1746614119.6798341,0.6198775768280029,-7.415173053741454,6.581440925598145
1746614119.748901,0.1585875302553177,-9.934175491333006,9.263591766357424
1746614119.8205075,0.8280385732650757,-8.643193244934082,6.9043664932250985
1746614119.8964608,0.6147350072860718,-6.12748622894287,6.421895027160645
1746614119.9724104,1.1470524072647095,-6.862214565277099,6.354390144348145
1746614120.0618649,0.7555730938911438,-6.8234848976135245,4.993953227996827
1746614120.1420283,0.43108540773391724,-4.12242317199707,3.368642091751099
1746614120.221021,1.410192608833313,-4.4878149032592765,3.9988903999328618
1746614120.287221,1.1732380390167236,-4.068072795867919,5.79093885421753
1746614120.3738472,1.2697407007217407,-5.127031803131103,4.141311168670655
1746614120.4461203,1.478459358215332,-6.615938186645507,7.71446990966797
1746614120.5298378,1.1781612634658813,-7.714186668395995,5.869675636291505
1746614120.5907552,0.6742118000984192,-5.924429416656493,5.392367362976075
1746614120.676199,0.800374448299408,-9.693639755249023,5.663656234741212
1746614120.7365723,0.08556283265352249,-5.605420112609862,5.8903822898864755
1746614120.798961,0.7264521718025208,-8.093711853027344,5.391364097595216
1746614120.877801,0.11391948163509369,-4.710713863372803,3.596140861511231
1746614120.9161406,0.5769779086112976,-1.6776077747344966,3.0342600345611572
1746614120.9795933,0.46606165170669556,-6.943508625030517,5.581745147705079
1746614121.0188458,-0.5553800463676453,-8.395342826843262,5.793684482574464
1746614121.065798,0.18090960383415222,-7.290760993957519,6.018286705017091
1746614121.1425266,-0.040213510394096375,-9.555533409118652,6.381033897399903
1746614121.1903887,-0.3721705675125122,-9.091267585754395,6.669990062713624
1746614121.231804,-0.5911769270896912,-8.45813274383545,6.484658718109132
1746614121.2992332,-1.2443405389785767,-9.988466262817381,8.644664764404299
1746614121.3517427,-0.5627586245536804,-7.722909927368163,6.399615764617921
1746614121.384106,-0.7528680562973022,-8.305862426757812,6.302521705627442
1746614121.4461224,-0.6216174364089966,-8.211305618286133,5.801988601684571
1746614121.4918942,-0.8615703582763672,-9.76798343658447,8.141063690185549
1746614121.62352,-0.50892573595047,-9.995017051696776,8.76515865325928
1746614121.675564,-0.9490928053855896,-6.809459686279296,5.721642971038819
1746614121.7892447,-0.11230333149433136,-7.596980571746825,6.7635207176208505
1746614122.1943436,0.05164250731468201,-8.090279579162598,6.508641242980958
1746614122.2807496,-0.4118957221508026,-6.677642822265624,5.929650783538819
1746614122.3636606,-0.23821279406547546,-8.248287200927734,6.525653839111329
1746614122.4281492,0.5107321739196777,-10.444233894348145,7.249723434448243
1746614122.473365,-0.4485667049884796,-8.861590385437012,6.944706439971925
1746614122.5267444,-0.3689141869544983,-8.970107078552246,6.9682354927063
1746614122.5856423,0.6285327672958374,-9.12327194213867,8.843072891235353
1746614122.6538472,0.8537294864654541,-9.684749603271483,8.538872718811037
1746614122.717119,0.843457818031311,-9.12399387359619,8.373558998107912
1746614122.7660067,0.8185193538665771,-8.237618446350098,6.289302349090577
1746614122.9519596,1.0261247158050537,-9.00805377960205,7.020860671997071
1746614123.0166175,0.8713201284408569,-7.532860279083251,5.745864868164063
1746614123.0705042,1.252698302268982,-7.536487102508544,5.0199060440063485
1746614123.1414697,0.1104738786816597,-6.332590579986571,4.765805244445802
1746614123.2301896,0.9153556823730469,-6.031944274902343,5.432283878326417
1746614123.588015,0.9417802095413208,-7.47551393508911,5.391978263854981
1746614124.3489327,1.17804753780365,-7.65441608428955,6.153230667114259
1746614124.8176718,1.8445581197738647,-4.371358394622802,5.9022912979125985
1746614124.9175112,0.8493250608444214,-5.16405439376831,6.447477340698243
1746614125.0059571,1.7601321935653687,-5.818644523620605,5.786163330078126
1746614125.0971508,1.6031850576400757,-8.366695404052734,6.767219543457032
1746614125.1794827,1.1119492053985596,-7.755589008331298,8.142758369445803
1746614125.259777,1.4715449810028076,-5.199480056762694,6.21196460723877
1746614125.3274803,1.3168907165527344,-6.789372920989989,5.483032226562501
1746614125.394167,1.2510242462158203,-6.553710460662841,5.714475631713868
1746614126.1874273,0.14634190499782562,-6.4064316749572745,5.522491931915284
1746614126.7102368,0.25222066044807434,-7.942721366882323,7.928675174713136
1746614126.7860117,-0.8431127667427063,-9.522478103637694,7.482626914978028
1746614126.843288,-1.405293345451355,-7.694324016571044,7.730003833770753
1746614126.9070733,-1.5638080835342407,-7.975450992584228,7.098002910614015
1746614126.980011,-0.31096214056015015,-6.826234340667724,5.79449224472046
1746614127.117688,-0.18663178384304047,-8.116107940673828,6.250055789947511
1746614127.1858926,-0.5984572768211365,-8.823136329650877,7.47370481491089
1746614127.2600446,-1.084075689315796,-9.093785285949707,6.958484649658204
1746614127.3347895,-1.3446787595748901,-11.16129970550537,9.584691047668459
1746614127.4102104,-1.12464439868927,-13.663681030273436,10.683054924011232
1746614127.473139,-0.9493590593338013,-13.271141052246092,9.243889808654787
1746614127.5521865,-0.6708826422691345,-11.038107872009276,7.462550640106203
1746614127.6266322,-0.3651846647262573,-8.958053588867188,6.854151248931886
1746614127.713408,-0.4259287714958191,-9.387561798095701,8.004923820495607
1746614127.776556,-0.11493445932865143,-9.044064521789549,8.132637023925783
1746614127.8404753,-1.033879041671753,-8.358358383178711,6.000917911529542
1746614127.919906,-1.370252013206482,-6.445859909057616,5.453697681427003
1746614127.9768147,-0.8629052639007568,-6.319411277770995,5.6530165672302255
1746614128.0608664,-0.3160606622695923,-6.396431446075439,4.945364475250245
1746614128.1097734,-0.2494121640920639,-8.135294914245605,6.0154738426208505
1746614128.1711936,0.13727684319019318,-8.317930221557617,6.2227115631103525
1746614128.728887,0.2050890475511551,-8.42434310913086,6.63635015487671
1746614129.3082645,0.1647748500108719,-7.121016979217528,6.322697162628175
1746614129.5690107,0.2745509147644043,-6.77343463897705,6.361174106597901
1746614129.8476744,-0.0379260778427124,-7.803221702575683,6.854253768920899
1746614130.0864549,0.5967583656311035,-7.632637500762939,7.147956371307374
1746614130.563682,0.8389174938201904,-8.26509380340576,7.6427931785583505
1746614130.756404,0.6443703770637512,-7.617185592651366,6.500210762023927
1746614130.8363628,0.7997275590896606,-7.970862388610839,6.772511959075929
1746614130.894367,0.9263406991958618,-7.9054217338562,7.122468948364259
1746614130.9749405,0.9293364882469177,-6.637694835662841,4.989398956298829
1746614131.0622823,0.7561177611351013,-6.616016387939452,5.1900296211242685
1746614131.1167526,-0.2741621434688568,-10.125792503356932,7.608138084411622
1746614131.1980326,0.08706246316432953,-9.548585891723633,6.818978786468507
1746614131.2929428,0.8206326961517334,-9.021967887878416,7.956797122955323
1746614131.3812628,0.8577497005462646,-8.852404594421385,7.646618843078614
1746614131.4542358,1.121749997138977,-8.339306831359863,6.925091743469239
1746614131.5348651,0.4975428283214569,-8.09417724609375,6.633547306060792
1746614131.6902413,1.5557646751403809,-6.660502433776855,6.10032606124878
1746614131.7531426,0.7031412124633789,-8.3895845413208,5.939488410949708
1746614131.8164756,1.298153042793274,-7.101253032684325,5.699687004089356
1746614131.8865702,1.806188941001892,-8.369770050048826,8.141118049621584
1746614131.9648569,1.3479523658752441,-9.020082473754883,6.550344944000245
1746614132.0378547,1.9734501838684082,-6.969403266906737,6.603373050689698
1746614132.1087856,1.5729928016662598,-7.5687618255615225,5.378617763519288
1746614132.18983,0.8969385623931885,-7.885319232940673,5.930593967437745
1746614132.250164,1.730629801750183,-5.144216060638427,4.692803859710694
1746614132.2889926,1.3269561529159546,-6.685269832611083,5.8445706367492685
1746614132.3252997,0.8385757207870483,-6.087108612060546,4.793406009674073
1746614132.3783264,1.4159594774246216,-4.444523811340331,5.880888462066651
1746614132.4231553,0.9613927602767944,-5.741452693939208,5.360991001129151
1746614132.4731946,2.2870266437530518,-5.452870368957519,4.731922149658204
1746614132.5327742,1.7258764505386353,-6.732068538665771,6.230043888092042
1746614132.5774343,1.9189385175704956,-6.645308017730712,4.668204307556153
1746614132.630234,2.0509116649627686,-5.300397872924804,6.084177017211915
1746614132.7182539,0.8043648600578308,-7.4155187606811515,5.275103569030763
1746614132.7546065,1.0103051662445068,-7.264854907989501,6.397641181945802
1746614132.8100827,1.3438701629638672,-7.635895252227782,6.7853946685791025
1746614132.8719046,1.4183999300003052,-7.441210269927978,5.0532264709472665
1746614132.9883456,0.708646833896637,-8.342552185058594,6.955914974212647
1746614133.0539684,1.7302048206329346,-6.833961486816405,6.004627704620362
1746614133.1911697,0.6557047367095947,-8.422628402709961,5.960482120513917
1746614133.2435977,1.0940319299697876,-6.708960056304931,5.386852264404298
1746614133.5269299,1.2752496004104614,-7.384848117828368,6.823172092437745
1746614133.5813189,1.1225281953811646,-6.085398197174071,5.594865798950196
1746614133.6646655,-0.034864187240600586,-8.949533462524414,6.55159091949463
1746614133.7080297,1.3996045589447021,-6.609451293945312,6.375754356384278
1746614133.7415037,1.5007216930389404,-7.731521129608153,7.430192470550538
1746614133.8809867,0.8758985996246338,-10.242028236389158,7.836619377136231
1746614133.9595463,1.554183840751648,-8.809369087219237,8.433299064636232
1746614134.0385098,1.2147834300994873,-10.00885772705078,8.711494445800783
1746614134.179916,0.9109963178634644,-9.57891273498535,7.414398193359376
1746614134.2206805,1.7108080387115479,-8.006464958190918,6.122583866119386
1746614134.3259797,0.8801551461219788,-8.937003135681152,7.009203433990479
1746614134.4679942,0.6852854490280151,-8.677295684814453,6.506371021270753
1746614134.5147989,1.7047513723373413,-8.269306182861328,6.05431365966797
1746614134.6387613,1.626650094985962,-7.709438800811767,5.96729612350464
1746614134.775202,1.3372375965118408,-9.877909660339355,6.72557544708252
1746614134.8106654,1.845781922340393,-8.188575744628906,7.14505958557129
1746614134.93458,1.532630205154419,-8.024494171142578,5.794291019439698
1746614134.994121,2.076730728149414,-7.149526119232177,6.013104438781739
1746614135.0967577,2.1424367427825928,-3.892177820205688,4.955606937408448
1746614135.2189524,1.889319896697998,-4.626970767974853,3.768685102462769
1746614135.3015578,2.8863027095794678,-3.4834594726562496,4.323124408721924
1746614135.3900814,2.153820753097534,-4.32224178314209,3.598294019699097
1746614135.4634268,1.9283432960510254,-6.100053310394286,6.029102325439454
1746614136.5579934,0.804882287979126,-5.846527099609374,5.144767284393311
1746614137.6660602,-0.1858251392841339,-9.472498893737791,8.003187179565431
1746614138.5523405,0.044305868446826935,-8.208129882812498,7.49463701248169
1746614139.3457065,-0.6381000280380249,-8.792847633361816,6.959304809570313
1746614140.031274,-0.9720513820648193,-11.297776222229002,9.273028373718263
1746614140.4432764,1.0426563024520874,-7.481512546539306,6.048358917236329
1746614141.2637553,2.0555524826049805,-6.227710723876952,5.795058250427247
1746614141.373288,1.2141692638397217,-5.636374950408935,5.281936168670655
1746614141.4476955,0.9673877954483032,-6.983732223510741,5.216939926147462
1746614141.5141761,1.5091899633407593,-7.832861423492431,4.826491832733155
1746614141.577793,0.4248422384262085,-7.521543025970458,6.040314197540284
1746614141.6576877,0.9714110493659973,-8.968271255493164,6.611612796783448
1746614141.7312574,0.7228251695632935,-9.423569679260252,7.58484697341919
1746614141.8084562,1.4257631301879883,-8.29705810546875,6.551693916320802
1746614141.905385,0.21885305643081665,-12.921596527099608,10.069550514221193
1746614141.9744458,0.9865458607673645,-12.234893798828123,9.648301124572756
1746614142.076111,0.09998813271522522,-11.81090450286865,10.078456878662111
1746614142.1440957,-0.562860906124115,-10.612552642822264,8.517539978027346
1746614142.2133904,0.5661139488220215,-11.259284019470213,9.64373016357422
1746614142.2987518,1.428272008895874,-8.38975143432617,7.871979236602784
1746614142.357758,1.150479793548584,-7.018396377563476,7.9721717834472665
1746614142.4278743,0.05695870518684387,-7.84477138519287,6.956735610961915
1746614142.4987116,0.5693286061286926,-8.130706787109375,6.819494247436524
1746614142.5811467,1.3779103755950928,-6.2881126403808585,6.475232601165772
1746614142.6255863,0.25112032890319824,-9.28410243988037,7.415489196777345
1746614142.688568,0.20553401112556458,-8.571406364440918,6.817039966583253
1746614142.7290866,1.349931240081787,-8.514747619628906,6.826920986175538
1746614142.7668421,0.6814215779304504,-9.076505661010742,6.369570255279542
1746614142.8302474,1.2363464832305908,-9.503162384033201,7.897637367248536
1746614142.8859406,1.474714994430542,-11.29531669616699,8.84035110473633
1746614142.925212,1.392909049987793,-11.849089622497557,9.636013984680178
1746614143.0520442,-0.18458889424800873,-11.861036300659178,9.854832649230959
1746614143.1280742,1.4737772941589355,-7.3868136405944815,6.918718814849854
1746614143.1676602,1.2134106159210205,-5.025639533996581,5.199580192565919
1746614143.2037477,1.6344778537750244,-7.342529773712157,6.0329041481018075
1746614143.24867,1.7390629053115845,-6.732836246490478,6.498969078063966
1746614143.3043118,1.420553207397461,-5.1129369735717765,4.8556604385375985
1746614143.4499264,1.191279649734497,-6.798676013946532,5.686950683593751
1746614143.5071507,1.1304579973220825,-5.243217468261718,4.947602272033692
1746614143.613278,0.5932639241218567,-6.449164390563964,4.522128105163575
1746614143.6624875,1.0252658128738403,-6.489209651947021,5.13764238357544
1746614143.7835793,0.27265942096710205,-7.93446397781372,6.173776149749757
1746614143.8524804,0.7018427848815918,-8.211575508117676,6.817668437957765
1746614143.9576364,0.7316409349441528,-10.972222328186033,8.379560470581056
1746614144.5606666,0.9777681231498718,-10.72170066833496,7.861633777618409
1746614144.7437317,0.2926883399486542,-12.087986946105955,8.821239471435549
1746614145.7332208,0.49902528524398804,-7.60456895828247,5.770368576049806
1746614146.3942592,0.007017403841018677,-8.78871440887451,8.233821868896486
1746614146.5762508,-0.6035463809967041,-8.162252426147461,5.726436614990235
1746614146.6297107,-0.029125764966011047,-7.190688610076903,6.797560691833497
1746614146.6976063,0.14280878007411957,-7.794025897979735,6.69229555130005
1746614146.7639163,-0.02980436384677887,-7.993921756744384,6.393610954284669
1746614146.825144,-0.40195491909980774,-10.11917495727539,6.725659847259522
1746614146.9619954,-0.5877032279968262,-7.992672443389892,5.840306282043458
1746614147.0707135,-0.7832155227661133,-6.857609272003173,5.584536075592042
1746614147.1457555,-0.8775490522384644,-9.299875259399414,6.658531665802003
1746614147.225777,-2.25622296333313,-10.21531867980957,7.0781030654907235
1746614147.2825274,-1.6345785856246948,-10.14427375793457,7.116071701049806
1746614147.3434575,-2.0551936626434326,-6.496048927307128,6.805038928985597
1746614147.403592,-0.8991492986679077,-7.8186888694763175,7.268576622009278
1746614147.4646015,-2.2725555896759033,-7.080823421478271,8.579036712646484
1746614147.521595,-1.916623830795288,-12.040806770324705,9.896304130554201
1746614147.5928648,-2.3407986164093018,-9.87260055541992,7.859664916992188
1746614147.645574,-2.332108497619629,-12.6008243560791,10.582656860351564
1746614147.7125983,-0.8805965781211853,-10.816470146179197,11.057862281799318
1746614147.752782,-1.748245358467102,-10.685648918151854,10.277621269226076
1746614147.8128507,-1.0383365154266357,-9.71147346496582,7.16076421737671
1746614147.8504434,-0.5827972888946533,-9.190059661865234,6.008001327514649
1746614147.8839116,-1.7002127170562744,-8.759156227111816,6.390094757080079
1746614147.95508,-1.7760592699050903,-7.030870914459228,6.576138496398927
1746614147.9983137,-2.209050178527832,-9.30426502227783,7.774983882904054
1746614148.0333345,-0.5184186100959778,-6.48950958251953,6.8681020736694345
1746614148.0716195,-0.2940957546234131,-5.781900882720946,5.759107589721681
1746614148.15244,-0.7982972860336304,-6.895514011383056,6.021294593811036
1746614148.1977096,0.013295456767082214,-4.734352111816405,5.58464813232422
1746614148.2890973,-0.18269389867782593,-5.415106296539306,6.765641689300538
1746614148.4290473,-0.4088715612888336,-5.729445934295653,7.041065216064454
1746614148.4948947,-0.8756135702133179,-9.2638521194458,6.961435794830323
1746614148.6265366,-1.0701963901519775,-7.406262397766112,6.795072078704835
1746614148.6946044,-0.2231808304786682,-7.04259443283081,6.530733108520509
1746614148.789034,-0.5786083936691284,-8.260882377624512,7.0172758102417
1746614148.9267428,-1.6181955337524414,-4.244630813598632,5.507883071899415
1746614149.654246,-0.6701566576957703,-3.0317778587341304,4.2458906173706055
1746614150.10218,-1.8764928579330444,-6.60049819946289,6.5083069801330575
1746614150.3117607,-0.8131385445594788,-5.816565036773681,5.530416011810304
1746614150.5823658,-0.2623502016067505,-6.985814094543456,8.261548042297363
1746614150.9175267,-0.7716627717018127,-8.303238868713377,8.332014083862306
1746614151.1706095,0.07713232934474945,-7.796091556549071,6.892196655273438
1746614151.7971597,0.4376400113105774,-7.042466640472411,6.476668357849122
1746614152.174451,-0.2535093426704407,-7.390394687652587,5.586850166320802
1746614152.2463934,-1.3482675552368164,-6.962389469146728,5.179926395416261
1746614152.3103893,-0.06516553461551666,-7.398905754089355,6.73500680923462
1746614152.3738348,-0.39173954725265503,-8.444575309753418,6.527346134185792
1746614152.4255393,-0.45370692014694214,-7.450990200042724,6.6416921615600595
1746614152.4855392,-0.1850634664297104,-4.952130317687987,4.362117290496827
1746614152.5559297,0.06155870109796524,-5.079474449157714,4.703677654266358
1746614152.6070566,-0.17307113111019135,-4.702332973480224,7.231849193572999
1746614152.6742349,-0.5312798023223877,-4.767811775207519,7.201298713684083
1746614152.7559512,0.0037668198347091675,-2.2833836078643794,4.2115983963012695
1746614152.827583,-1.4953240156173706,-8.851711273193358,7.4555420875549325
1746614152.8816512,-2.3927462100982666,-9.357504844665526,8.398438453674318
1746614152.9661467,-1.9200116395950317,-11.48711585998535,9.301506996154787
1746614153.0700054,-1.3325930833816528,-8.88542652130127,7.011693954467774
1746614153.208602,-1.7751805782318115,-8.18035316467285,7.42647933959961
1746614153.2806332,-2.0441701412200928,-7.994122505187987,6.853230476379395
1746614153.345938,-0.147825688123703,-5.855819225311278,7.060681819915772
1746614153.4180815,-2.5885872840881348,-9.410945892333983,8.027280807495119
1746614153.4655316,-1.9093433618545532,-10.045651435852049,8.973732948303224
1746614153.5049233,-2.3254311084747314,-10.249846458435057,8.641608238220217
1746614153.5547683,-1.186335802078247,-7.694065570831298,6.570992946624757
1746614153.6279416,-0.5072524547576904,-7.157425880432128,6.04020643234253
1746614153.679132,-0.1946459412574768,-8.361747741699219,6.935851573944093
1746614153.7448308,0.1390712708234787,-7.163599014282226,6.055529117584229
1746614153.7889621,0.3407577574253082,-6.4347543716430655,5.879889965057374
1746614153.8259711,-0.10106870532035828,-5.445093631744384,6.812561035156251
1746614153.878723,-0.23449966311454773,-7.045372962951659,7.273353576660157
1746614153.9332676,0.32820558547973633,-6.454025745391845,6.936156749725343
1746614153.9974675,-0.4444231688976288,-8.650476455688477,6.98979663848877
1746614154.0869021,0.6185445785522461,-7.19909381866455,7.059185981750489
1746614154.2086914,0.3218429386615753,-7.7395281791687,7.716019153594972
1746614154.2851706,0.401008278131485,-7.663416862487792,7.528632164001466
1746614154.5972526,-0.3987467586994171,-9.110436439514158,7.416553497314454
1746614154.6620212,-0.888437032699585,-8.925039291381836,5.808173656463624
1746614154.7259054,-0.8284848928451538,-8.583434104919434,6.546304225921632
1746614154.761031,0.06962450593709946,-5.180589675903319,4.140884399414063
1746614154.8205073,-0.2532272934913635,-5.803955554962157,3.960252761840821
1746614154.9057853,-1.015561580657959,-7.900481700897216,5.855488777160645
1746614154.95774,0.0277574360370636,-7.002304553985595,5.634573936462403
1746614155.052744,-0.04449427127838135,-5.584823608398437,6.3542118072509775
1746614155.1729538,0.04170837253332138,-7.813600063323974,6.044401645660401
1746614155.2440798,0.07376937568187714,-7.402893066406249,5.827533245086671
1746614155.3563478,-1.116796612739563,-7.990587711334228,6.176624774932862
1746614155.4308646,0.2548956274986267,-5.782906055450439,5.930157661437989
1746614155.5300956,-0.11306789517402649,-5.610045909881591,5.37718677520752
1746614155.6621451,-0.11743497848510742,-3.102899074554443,4.857626438140869
1746614155.7220125,-0.15539422631263733,-3.5719139575958243,6.060226917266846
1746614155.872544,-1.3189908266067505,-4.713273525238036,5.566401958465577
1746614155.9296556,-0.4381163418292999,-5.795516490936278,6.838139057159425
1746614156.0277936,-1.4561461210250854,-6.360495090484618,6.79348373413086
1746614156.1321719,-2.4056060314178467,-9.796069145202635,7.51443910598755
1746614156.1934714,-2.645504951477051,-7.972859382629394,7.164082527160645
1746614156.3286068,-1.6565696001052856,-8.67573070526123,7.073956012725831
1746614156.3995924,-0.10176709294319153,-7.385196685791015,5.978375911712647
1746614156.5100834,0.349220335483551,-7.115172386169433,4.839325904846192
1746614156.6230938,-0.9788947105407715,-5.544109821319579,6.499194145202638
1746614156.68655,-0.6008436679840088,-6.826092720031737,5.412391662597657
1746614156.8232856,-1.3486443758010864,-5.671514987945556,6.391900062561036
1746614156.9009106,-0.023356422781944275,-7.673316001892089,7.546715736389161
1746614156.99233,-1.116981863975525,-6.370460987091064,7.570586681365968
1746614157.1104574,-0.3571082353591919,-5.8044490814208975,5.217486858367921
1746614157.481265,-0.765410304069519,-7.744301795959472,6.3467116355896005
1746614157.58229,-2.6356136798858643,-8.609822273254393,7.499376296997071
1746614157.6414478,-1.8029593229293823,-8.267990112304686,7.926378726959229
1746614157.7183928,-3.4047131538391113,-7.231606483459472,6.456889629364015
1746614157.8123767,-1.5029141902923584,-7.475814342498778,8.070049285888674
1746614157.8563936,-1.7986210584640503,-6.8894028663635245,7.267261028289796
1746614157.9352014,-0.6414293050765991,-5.619804859161376,7.41382646560669
1746614157.9885156,-1.6922857761383057,-6.643249988555907,4.440041065216065
1746614158.0460665,-2.3807485103607178,-5.4794392585754395,2.905565023422242
1746614158.117435,-1.728121042251587,-10.817531585693358,9.539618492126467
1746614158.1662633,-0.805232584476471,-7.216014385223388,8.86063003540039
1746614158.2613657,-2.1856250762939453,-5.489454269409179,6.851005077362061
1746614158.3225079,-1.275448203086853,-7.681420326232909,7.324990749359132
1746614158.4254615,-2.145925521850586,-7.580559730529784,4.956881046295167
1746614158.538839,-1.1261284351348877,-6.389333248138427,6.788279056549073
1746614158.6197536,0.10776209831237793,-3.5651938915252677,5.685986042022705
1746614159.832347,-2.4090681076049805,-8.522470474243164,4.876229763031007
1746614161.002566,-2.39613938331604,-7.607497215270995,7.95324468612671
1746614161.3365,-1.7655675411224365,-1.9871780872344966,2.8717937469482426
1746614161.4211977,-3.520766496658325,-8.663002014160156,5.367164611816407
1746614161.4859262,-4.197959899902344,-6.64046049118042,3.5009074211120614
1746614161.5619974,-2.3243257999420166,-5.494338035583495,8.238529205322266
1746614161.6339233,-3.808089256286621,-9.057825088500977,7.114962577819825
1746614161.6926656,-3.7941904067993164,-9.240617752075195,7.056186199188233
1746614161.7454138,-1.3842337131500244,-4.4739060401916495,9.48738956451416
1746614161.8003159,-6.749268054962158,-17.470743179321286,15.136713027954103
1746614161.8536062,-4.004363059997559,-23.239398956298825,20.244895935058597
1746614161.9116945,-4.047293663024902,-14.826436042785643,9.207607269287111
1746614161.9892445,-1.513419270515442,-10.295924186706541,11.6433162689209
1746614162.0658019,-2.1654136180877686,-4.892717838287353,7.401775836944581
1746614162.117811,-2.2472352981567383,-5.802608489990234,3.209167957305909
1746614162.1929114,-3.390838146209717,-9.639026641845703,5.404748439788819
1746614162.2650764,-4.189853191375732,-14.049264907836912,10.460937500000002
1746614162.321572,-2.3746795654296875,-10.377779960632322,7.632604598999024
1746614162.3553648,-1.2337464094161987,-8.356263160705566,6.387267589569093
1746614162.4160657,-1.460319995880127,-10.358658790588377,8.870519638061525
1746614162.4497604,-0.15725824236869812,-9.033719062805174,7.732148170471192
1746614162.5077486,-0.8637419939041138,-9.351984977722166,9.081141471862795
1746614162.5620022,0.7298167943954468,-2.7776954174041744,4.85259485244751
1746614162.626333,-0.6314913034439087,-8.929908752441404,8.395314216613771
1746614162.6614904,0.9367759227752686,-5.128060817718505,7.183518886566163
1746614162.7778006,-2.0018441677093506,-8.14975643157959,5.431201934814454
1746614162.801416,0.029563799500465393,-8.457581520080566,6.74886703491211
1746614162.8976476,-0.006158396601676941,-7.441721439361571,4.718096733093263
1746614162.9644985,-0.14356349408626556,-9.378696441650389,8.655307769775392
1746614163.0696683,-0.1387513279914856,-10.444363594055176,6.817048072814942
1746614163.1391087,1.0690290927886963,-9.140641212463377,10.022226333618166
1746614163.237944,0.09950331598520279,-10.138322830200194,8.39429569244385
1746614163.3673954,-0.026528850197792053,-10.807044982910156,6.780914306640626
1746614163.4687505,0.9669185876846313,-6.339372634887694,6.277179718017579
1746614163.5440793,0.9951547384262085,-7.099850177764892,6.194194793701173
1746614163.6242003,1.7295905351638794,-8.139719009399414,6.166690349578858
1746614163.7277372,0.8433705568313599,-7.7603440284728995,5.439188480377198
1746614163.9724252,0.6834606528282166,-7.371700763702392,6.151021003723145
1746614164.0325086,1.8656765222549438,-7.186049938201903,6.887585163116456
1746614164.1985543,1.5540151596069336,-7.144117832183837,5.4285926818847665
1746614165.326775,1.8234620094299316,-5.726346969604491,5.26258945465088
1746614166.0177705,2.4753706455230713,-6.046488761901855,4.477818965911866
1746614166.361166,1.9272775650024414,-8.923015594482422,5.230356216430665
1746614166.750091,1.188724398612976,-7.449335098266601,5.670940399169923
1746614166.819676,0.8692867159843445,-7.3836936950683585,4.765070438385011
1746614166.874578,0.7119954228401184,-7.666598320007323,5.52261781692505
1746614166.9324372,0.9331873059272766,-8.125448226928711,6.954426765441895
1746614166.9893734,0.6248644590377808,-9.844972610473631,8.800191879272463
1746614167.0356104,0.7433204650878906,-10.240857124328612,8.944967269897463
1746614167.097658,0.23865410685539246,-11.32347774505615,8.329071044921877
1746614167.1680574,0.09980597347021103,-7.024523735046386,6.150248527526856
1746614167.276831,-0.4474620223045349,-7.665513515472411,7.059200286865235
1746614167.3572297,-0.3002464175224304,-8.451400756835936,7.403943061828614
1746614167.4309547,0.14343440532684326,-8.036215782165526,8.462770462036135
1746614167.4832273,0.2366877794265747,-8.635779380798338,9.177005767822267
1746614167.5384595,-1.0235862731933594,-7.211039066314696,8.274715423583984
1746614167.5902739,0.6219345331192017,-9.068271636962889,10.153257369995119
1746614167.6633124,-1.0525319576263428,-8.334916114807127,7.487924098968507
1746614167.7171755,-0.033234745264053345,-9.667880058288572,9.205112457275392
1746614167.7656846,0.3942599892616272,-9.165452957153319,8.23171138763428
1746614167.8012488,-0.2733275294303894,-10.112622261047362,7.771049976348878
1746614167.8576994,-0.006950050592422485,-10.83835983276367,9.237776756286623
1746614167.9235082,0.7672867178916931,-8.713767051696777,7.237754821777345
1746614167.9782531,-0.5118638277053833,-8.245079040527344,7.184041023254395
1746614168.0413873,0.11629915237426758,-8.899032592773436,7.525775909423829
1746614168.0807362,-0.17630928754806519,-8.397220611572264,7.377241611480714
1746614168.1108432,0.5224429965019226,-8.486880302429197,7.600688457489015
1746614168.1999557,0.06739282608032227,-9.448179244995117,6.803433418273927
1746614168.2473834,0.1910972148180008,-7.948762416839599,5.7961111068725595
1746614168.354648,0.17648011445999146,-7.226082801818847,5.630875110626222
1746614168.4462383,1.6129261255264282,-8.653648376464842,7.974139690399171
1746614168.5532985,0.6745418310165405,-8.396944046020506,8.106195449829103
1746614168.6597939,-0.5988637208938599,-9.17496871948242,7.344279766082765
1746614168.7610373,0.02523178607225418,-5.881275177001952,5.246181011199952
1746614168.8477075,0.1533321589231491,-7.62936782836914,7.0150113105773935
1746614168.9302635,1.2711762189865112,-6.307170391082763,4.930864810943604
1746614169.0247703,0.1118425503373146,-6.731623649597167,5.830984115600587
1746614169.2366312,-0.2179429531097412,-8.724140167236326,7.326638698577882
1746614169.6504524,-0.12283545732498169,-9.506720542907713,7.3642969131469735
1746614170.7323303,0.4768868088722229,-9.334274291992186,7.337714672088624
1746614171.4295287,1.2732064723968506,-4.501182079315185,3.8655400276184086
1746614172.056311,0.8111690878868103,-9.600474357604979,7.65899419784546
1746614172.397935,1.8116135597229004,-6.301179409027099,5.239047050476075
1746614172.5480845,1.655776023864746,-5.86991786956787,5.436584472656251
1746614172.6369622,1.401693344116211,-4.368421077728271,5.588923454284669
1746614172.7206473,2.124443292617798,-5.995455265045165,6.094073295593263
1746614172.8044257,1.5382425785064697,-7.805548191070556,7.0130581855773935
1746614172.9014974,1.4234731197357178,-8.673496246337889,7.614285945892335
1746614172.9701662,1.3380382061004639,-8.55051040649414,6.565440177917481
1746614173.0533664,0.14082126319408417,-9.532510757446287,7.696181297302247
1746614173.1220498,-0.11577211320400238,-8.760958671569822,7.797737121582032
1746614173.196317,1.127423644065857,-8.841020584106445,7.147718429565431
1746614173.2558358,0.25956064462661743,-12.186078071594237,9.9970760345459
1746614173.329636,0.6508417129516602,-8.38058090209961,6.22711992263794
1746614173.3839252,1.727882981300354,-7.850850582122802,5.992723464965821
1746614173.4526577,1.4181783199310303,-6.734426975250243,5.249084472656251
1746614174.3018198,2.458134174346924,-6.13874053955078,5.896475315093995
1746614175.119435,2.6247689723968506,-5.272857666015624,4.928359985351563
1746614175.6723042,1.5814436674118042,-6.4552316665649405,6.453365325927735
1746614176.0888133,2.031965970993042,-9.042561531066893,8.907111167907717
1746614176.5685964,1.5302979946136475,-5.836164951324462,6.1285648345947275
1746614176.9857059,2.979257822036743,-8.221277236938475,8.29368305206299
1746614177.6405456,1.6020914316177368,-5.990345001220702,4.74365520477295
1746614177.815943,0.6912448406219482,-8.076973915100098,5.7256131172180185
1746614177.9140937,1.5690500736236572,-7.816861152648925,6.989350318908692
1746614177.9898765,0.5821049809455872,-9.802103996276854,8.204219818115236
1746614178.0622458,-0.3541547954082489,-8.270378112792969,6.491051673889161
1746614178.1334682,0.7741349935531616,-4.659812927246093,4.426101684570313
1746614178.2056673,0.6119922995567322,-7.209577560424804,6.836343288421632
1746614178.2715092,-0.7515780925750732,-5.187286376953124,4.364407539367677
1746614178.3382702,1.0136737823486328,-4.771779537200927,5.241673469543458
1746614178.39814,0.3399518132209778,-8.253987312316895,7.237389087677003
1746614178.4651504,-0.17483633756637573,-9.896618843078612,8.056180953979494
1746614178.5236762,0.46626466512680054,-7.796162128448485,6.921349525451661
1746614178.7857556,1.603096842765808,-8.54774284362793,7.155460834503175
1746614178.8430374,-0.8497208952903748,-10.916173934936522,8.584557533264162
1746614178.9038973,-0.10101526975631714,-8.821928024291992,7.021024703979493
1746614178.9756882,0.7478556632995605,-9.749508857727049,7.765981197357179
1746614179.0544558,1.0606424808502197,-8.300206184387207,7.232746601104737
1746614179.121193,1.6640716791152954,-9.553212165832518,9.351078033447267
1746614179.1886303,1.3655569553375244,-7.719373703002929,5.802058696746827
1746614179.261646,1.0287885665893555,-7.339098930358886,5.900751590728761
1746614179.3417146,1.0425001382827759,-4.804370403289794,4.601411819458009
1746614179.8028824,1.2273876667022705,-4.826210021972655,5.080812454223634
1746614180.2318816,0.9399185180664062,-6.6220078468322745,4.683009624481202
1746614180.999395,-0.4426940381526947,-6.33622121810913,5.28011703491211
1746614181.510753,0.22615307569503784,-7.467005252838134,7.450585365295411
1746614181.586592,-0.08274511992931366,-12.654139518737791,10.007447242736818
1746614181.6544418,-1.7405129671096802,-14.471940994262694,10.47239685058594
1746614181.7159603,0.15490570664405823,-10.37040615081787,7.461047649383546
1746614181.8100111,-1.7143999338150024,-11.42808151245117,9.244524002075197
1746614181.8894703,0.07831697165966034,-12.853443145751951,9.592573165893556
1746614181.9615932,-0.6789664030075073,-14.934915542602537,10.616250038146974
1746614182.064612,-0.18373867869377136,-10.418161392211912,8.266929626464846
1746614182.1387746,-0.8629761338233948,-8.207085609436033,7.311368942260743
1746614182.202735,-0.35120534896850586,-5.716550827026366,6.4065918922424325
1746614182.2553735,-0.16326014697551727,-5.091240406036376,4.403021812438966
1746614182.3303115,0.8651999831199646,-5.802083492279052,5.2338624000549325
1746614182.3895013,0.7404977679252625,-6.885845184326171,5.768320560455323
1746614182.4938624,0.28083494305610657,-6.170001983642577,4.300642013549806
1746614182.5681646,0.8865319490432739,-5.735682010650634,6.629074573516847
1746614182.6303616,1.2665330171585083,-7.780703544616698,7.787353515625001
1746614182.7179995,0.16174350678920746,-7.642133235931396,7.165149688720704
1746614182.8052375,0.47319239377975464,-9.3866491317749,7.661236286163331
1746614182.8814285,0.7788625955581665,-5.727444171905517,5.06715488433838
1746614182.9381058,-1.3437591791152954,-11.740731239318846,9.576292991638185
1746614183.0077434,0.20495553314685822,-6.383354187011718,6.626639842987061
1746614183.046491,1.0420082807540894,-9.510021209716795,9.867066383361818
1746614183.1086807,0.30732524394989014,-9.431878089904783,8.248997688293459
1746614183.18174,1.0405449867248535,-8.700130462646483,7.616877555847169
1746614183.2347612,-0.827454686164856,-8.723095893859862,7.35318946838379
1746614183.9978364,0.7212591767311096,-10.1826696395874,9.369723320007326
1746614185.048017,1.5729655027389526,-4.5372042655944815,3.7326972484588627
1746614185.5292444,0.6570984125137329,-9.156022071838377,7.441545009613038
1746614185.7421463,0.09835006296634674,-8.033906936645508,6.978393077850343
1746614186.0839937,0.7168514728546143,-5.790101528167724,6.012489795684815
1746614186.334747,0.06225883215665817,-6.3032588958740225,5.658353805541993
1746614186.46101,-0.18577620387077332,-7.004984855651855,7.396735668182374
1746614186.5356207,-0.996431827545166,-5.4828853607177725,5.754062175750733
1746614186.648833,0.35927486419677734,-7.4844579696655265,6.98418426513672
1746614186.7642577,0.27999117970466614,-6.492313385009765,6.970766067504884
1746614186.8503578,-1.2504091262817383,-11.80051517486572,9.460720062255861
1746614186.9527724,-1.889541745185852,-7.760631561279296,6.910411834716798
1746614187.0174627,0.5898491144180298,-7.149258613586425,7.146406650543214
1746614187.1228225,0.16015374660491943,-8.025528907775877,8.707713127136232
1746614187.2166305,0.1684054136276245,-7.577844619750976,7.696374416351319
1746614187.2943316,0.3249220550060272,-7.593136310577392,8.016886711120607
1746614187.3699057,0.9284076690673828,2.616667985916138,2.508573770523071
1746614187.516967,1.1933128833770752,-1.6972720623016353,2.7264010906219482
1746614187.6582403,0.1892351359128952,-7.454121112823485,7.924408912658692
1746614187.730154,-1.696709394454956,-15.49158191680908,11.29620933532715
1746614187.8193717,-1.83061945438385,-20.092004776000973,15.928001403808596
1746614187.9067204,-0.4100126624107361,-6.84300136566162,5.848186016082765
1746614187.97656,0.5575852990150452,-8.059383392333984,6.96831226348877
1746614188.0734253,0.0760706216096878,-8.82128620147705,6.660310745239259
1746614188.1900964,0.6100669503211975,-6.534707069396972,5.995063304901124
1746614188.3383105,0.10773612558841705,-6.15097951889038,5.502165317535401
1746614188.4281151,0.5423188209533691,-8.62910270690918,6.067922592163087
1746614188.511168,-0.48351937532424927,-4.5254645347595215,3.302994012832642
1746614188.5962894,-0.4632270336151123,-9.56868839263916,6.713798999786378
1746614188.8522377,0.18982286751270294,-7.019612312316894,5.796128273010255
1746614188.9437478,0.6568711996078491,-6.990132331848144,6.491316318511964
1746614189.0124466,0.4639729857444763,-5.944148063659667,5.30504322052002
1746614189.1226268,0.5263803005218506,-6.373574256896972,4.962451457977296
1746614189.1616166,-0.41866087913513184,-5.4789037704467765,5.950297832489015
1746614189.2134774,-0.52695232629776,-7.283136367797851,6.462844848632813
1746614189.2902174,-1.005157470703125,-6.47141933441162,6.111047267913819
1746614189.337148,0.49760860204696655,-7.439818382263183,6.372926712036134
1746614189.4099667,1.172186017036438,-3.962696313858032,5.407629013061524
1746614189.4631603,-0.09147313237190247,-16.398317337036133,12.960277557373049
1746614189.5129292,-0.5663843154907227,-9.835482597351072,7.46738624572754
1746614189.5857599,-0.483386754989624,-6.9266977310180655,6.479418754577638
1746614189.6332917,0.968936562538147,-10.61454391479492,8.95472049713135
1746614189.6781898,1.416114091873169,-13.476802825927733,11.455246925354006
1746614189.7479444,0.3027133345603943,-11.827563285827635,10.491640090942385
1746614189.7890751,-0.034160926938056946,-6.408475399017333,6.570587635040284
1746614189.8381379,1.2746808528900146,-8.78300094604492,8.105817794799806
1746614189.9129171,1.3048202991485596,-8.54636287689209,6.312063694000245
1746614189.9497817,0.10251622647047043,-9.500291824340819,7.3773832321167
1746614190.034519,1.0397611856460571,-7.074559211730956,6.164742946624757
1746614190.100109,1.1115535497665405,-2.7889866828918453,4.433005332946777
1746614190.1404765,1.0699915885925293,-4.367868423461913,5.32742738723755
1746614190.2171698,2.294144868850708,-5.503349781036376,7.061511516571046
1746614190.253459,1.1293885707855225,-7.68720245361328,6.422592639923097
1746614190.2794564,1.916182279586792,-6.773137092590331,7.29857349395752
1746614190.3566751,1.3413381576538086,-6.683913230895995,5.882125854492188
1746614190.4246686,0.7413114309310913,-8.251139640808104,7.616810321807862
1746614190.5388012,1.2003358602523804,-7.82691478729248,7.159123420715333
1746614190.618641,0.16826839745044708,-5.186556816101073,4.790682792663575
1746614190.7339494,1.8741190433502197,-5.059746265411376,5.907182216644288
1746614190.8500066,1.1989468336105347,-5.976776123046874,4.462682247161866
1746614190.9209275,0.5246536135673523,-7.368685722351073,8.07823181152344
1746614191.0282586,-0.09858623147010803,-8.262055397033691,5.554690837860108
1746614191.0977635,-0.15316565334796906,-7.03137445449829,7.028712749481202
1746614191.2249005,1.2533499002456665,-7.5369529724121085,5.660569667816163
1746614191.3450089,0.4998893737792969,-9.921344757080076,7.413127422332765
1746614191.3928258,1.6558202505111694,-8.067117691040039,6.467785358428956
1746614191.508661,0.1662648618221283,-10.745903015136717,7.960315704345704
1746614191.5958474,0.8846799731254578,-6.637064456939696,5.533830165863038
1746614191.7632394,0.8371484875679016,-10.548959732055664,6.474741458892823
1746614191.8465211,1.0769460201263428,-8.890987396240233,7.89519500732422
1746614191.8866327,1.065295696258545,-6.898744106292724,5.636540889739991
1746614191.985218,0.4892287254333496,-8.637253761291504,6.598066329956056
1746614192.0715504,0.9157310128211975,-6.810168743133544,5.290409564971925
1746614192.1911793,0.1941535919904709,-10.093634605407715,7.016170501708985
1746614192.3265963,0.6983127593994141,-10.9183292388916,9.223890304565431
1746614192.3817017,0.7917202115058899,-5.0824007987976065,4.0040626525878915
1746614192.4762733,0.2980940341949463,-6.345332145690917,5.215198040008546
1746614192.552402,0.6411218047142029,-8.300946235656738,6.457076072692872
1746614192.663389,-0.06567727029323578,-14.750575065612791,12.127843856811525
1746614192.7621467,0.19145101308822632,-12.325977325439451,8.658704757690431
1746614192.84033,0.18804892897605896,-9.172642707824705,7.485083580017091
1746614193.023846,0.7068341970443726,-9.588629722595213,7.921019077301026
1746614193.0583308,1.005958080291748,-7.520192623138427,6.109694004058839
1746614193.1916893,0.39586806297302246,-7.400835990905761,6.187540531158448
1746614193.27871,0.3280165493488312,-7.219830036163329,5.742584705352784
1746614193.3264916,1.2827363014221191,-7.113301753997802,5.744646549224854
1746614193.4812675,-0.32978907227516174,-9.719250679016112,7.511038303375245
1746614193.5164704,1.443101406097412,-6.596270084381103,7.2973389625549325
1746614193.6412332,0.3204852044582367,-7.234210014343261,5.172111034393311
1746614193.7770464,0.8597289323806763,-6.775664329528808,6.799283981323243
1746614193.8581977,0.33389371633529663,-8.024012565612793,6.416192531585694
1746614193.9418864,-0.027344271540641785,-8.574187278747559,6.954293727874757
1746614194.013475,0.8155386447906494,-9.149227142333983,7.937073707580567
1746614194.098719,1.2067739963531494,-5.64193296432495,6.454224586486817
1746614194.9047751,0.11738726496696472,-5.892589092254638,6.993056297302247
1746614195.1373951,1.4624969959259033,-7.8218698501586905,8.378387451171877
1746614195.209513,0.7317613959312439,-10.197350502014158,8.754237174987795
1746614195.29958,1.535582423210144,-10.9774112701416,10.716301918029787
1746614195.3629403,-0.024325713515281677,-9.495429039001463,8.969215393066408
1746614195.4275606,2.197099208831787,-9.038158416748045,9.080700874328615
1746614195.4890287,1.2096104621887207,-10.13711643218994,8.77739715576172
1746614195.580233,2.0802488327026367,-7.121166706085204,6.698130130767823
1746614195.6452723,2.325674295425415,-6.492515563964843,6.705994606018067
1746614195.717061,1.0712966918945312,-7.2322959899902335,6.058239936828614
1746614195.7683637,2.0838325023651123,-2.4505214691162105,2.8720581531524663
1746614195.8089104,2.4724295139312744,-4.278006076812743,6.394918441772462
1746614195.8999417,0.057230524718761444,-7.761003494262694,5.72804880142212
