timestamp,ax,ay,az
1746609855.6224437,-1.9751183986663818,-6.502435684204101,7.041872501373292
1746609855.6658382,-1.9771374464035034,-6.524240970611571,7.05007553100586
1746609855.7775922,-1.986207365989685,-6.510247230529784,7.062504291534425
1746609855.8792684,-1.9896984100341797,-6.513551235198974,7.052786350250245
1746609855.9749362,-1.9987057447433472,-6.5337486267089835,7.065168380737306
1746609856.0616083,-2.011800765991211,-6.4795565605163565,7.074985027313233
1746609856.1461213,-1.989915132522583,-6.4872093200683585,7.066081523895265
1746609856.2575338,-1.99862802028656,-6.518478870391845,7.052044391632081
1746609856.3411589,-1.9627727270126343,-6.500155448913573,7.049955844879151
1746609856.4550397,-1.996189832687378,-6.527751445770263,7.049723148345948
1746609856.531073,-1.989711046218872,-6.481848716735839,7.066323757171632
1746609856.6279871,-2.00187349319458,-6.548318862915038,7.02396583557129
1746609856.7396595,-1.9933621883392334,-6.517260551452636,7.055619716644288
1746609856.8199282,-1.9980266094207764,-6.544180393218993,7.039080619812013
1746609856.9397078,-1.9854905605316162,-6.504469871520995,7.053966522216798
1746609857.0120668,-1.9957149028778076,-6.502861022949218,7.062578678131104
1746609857.1103811,-2.009162187576294,-6.5156540870666495,7.064008235931397
1746609857.2195132,-1.9856739044189453,-6.49528932571411,7.06481170654297
1746609857.301221,-1.9849315881729126,-6.492876529693603,7.0506329536438
1746609857.409701,-1.979488730430603,-6.522061824798583,7.062303066253663
1746609857.4944978,-1.9846388101577759,-6.536144256591796,7.04665231704712
1746609857.5902371,-1.9734665155410767,-6.524220943450927,7.049084186553956
1746609857.699116,-1.9881035089492798,-6.532545089721679,7.046105861663819
1746609857.782483,-1.9868154525756836,-6.510957717895507,7.044941425323487
1746609857.8965158,-1.9897927045822144,-6.528291702270507,7.053897380828858
1746609857.9722748,-1.9837381839752197,-6.498185634613036,7.053916454315186
1746609858.0681024,-1.9922633171081543,-6.496381759643554,7.0538697242736825
1746609858.1797514,-1.9932124614715576,-6.516983032226562,7.051769733428956
1746609858.2600915,-1.9893001317977905,-6.513348102569579,7.044150352478028
1746609858.3709037,-2.0042190551757812,-6.530687808990478,7.054030895233155
1746609858.4525115,-2.0026803016662598,-6.538408279418944,7.046330451965333
1746609858.5493557,-1.9900091886520386,-6.518483638763427,7.053182125091554
1746609858.6608183,-2.038438081741333,-6.265791416168212,7.011801719665528
1746609858.7413058,-1.8749439716339111,-6.698143005371093,7.049776077270509
1746609858.864064,-2.155097484588623,-6.450365543365478,7.06367063522339
1746609858.933244,-2.0887768268585205,-6.572182178497314,7.049767017364503
1746609859.0293484,-1.969662070274353,-6.495876789093017,7.034342765808106
1746609859.1407766,-1.998008370399475,-6.539629936218261,7.066188335418702
1746609859.2221692,-1.999111294746399,-6.5103182792663565,7.049218177795411
1746609859.3413959,-1.9838258028030396,-6.49661636352539,7.062997341156007
1746609859.4135215,-1.975595474243164,-6.501574993133544,7.0564050674438485
1746609859.512853,-1.9832744598388672,-6.5266098976135245,7.047664642333985
1746609859.6210632,-1.9906412363052368,-6.5148911476135245,7.048573970794679
1746609859.7046273,-2.008441925048828,-6.509069919586181,7.046389102935792
1746609859.8188674,-1.9946584701538086,-6.494552135467528,7.049455642700196
1746609859.8955703,-1.9662902355194092,-6.5281429290771475,7.050233840942384
1746609859.991491,-1.9586901664733887,-6.522340774536132,7.038499355316163
1746609860.1044958,-2.0062122344970703,-6.5263047218322745,7.0537195205688485
1746609860.1833553,-1.9824048280715942,-6.5103464126586905,7.04605531692505
1746609860.2915342,-1.9855821132659912,-6.520548343658446,7.044544219970704
1746609860.3754444,-2.0016684532165527,-6.517699241638183,7.0603322982788095
1746609860.4714084,-1.99663507938385,-6.512888431549071,7.061463356018067
1746609860.5814595,-2.000149726867676,-6.49311065673828,7.054992198944093
1746609860.664539,-1.989568829536438,-6.8502135276794425,7.13275957107544
1746609860.778773,-2.060303211212158,-6.388640403747558,7.102318286895753
1746609860.8575556,-1.9452837705612183,-6.52484893798828,7.033922195434571
1746609860.9536085,-2.0421717166900635,-6.54757261276245,7.042998790740968
1746609861.0658276,-2.012645721435547,-6.515460968017577,7.052525997161866
1746609861.1457343,-1.9985154867172241,-6.525038242340087,7.050471305847169
1746609861.2666137,-1.9918235540390015,-6.51499843597412,7.046796798706056
1746609861.3378406,-1.9860988855361938,-6.535272598266601,7.037577152252198
1746609861.433653,-1.9681824445724487,-6.5202035903930655,7.046746253967286
1746609861.5418632,-1.9905831813812256,-6.52448558807373,7.065155029296876
1746609861.6255906,-1.9721053838729858,-6.516228675842284,7.039781570434571
1746609861.7451642,-1.9686553478240967,-6.530218601226806,7.043217182159425
1746609861.8175893,-1.966132640838623,-6.523935317993163,7.0381107330322275
1746609861.9141858,-1.983141541481018,-6.508415222167968,7.046087265014649
1746609862.0284445,-1.9984221458435059,-6.51888084411621,7.053242683410645
1746609862.1148212,-1.9850424528121948,-6.523212432861327,7.055328845977784
1746609862.2141423,-1.9990534782409668,-6.5135765075683585,7.0557312965393075
1746609862.2977686,-2.0001676082611084,-6.5141000747680655,7.062053203582765
1746609862.393739,-1.9935510158538818,-6.51409101486206,7.061663150787354
1746609862.5053165,-2.003530740737915,-6.374028682708739,7.0034546852111825
1746609862.5866735,-1.976117730140686,-6.550138473510741,7.046083927154542
1746609862.70315,-2.022423267364502,-6.499897003173827,7.06542205810547
1746609862.777706,-1.9825985431671143,-6.502608776092528,7.049143314361573
1746609862.8739474,-1.9985334873199463,-6.518090248107909,7.05265760421753
1746609862.9851818,-2.01214599609375,-6.533451557159423,7.060386180877686
1746609863.0660093,-1.9855902194976807,-6.474419593811034,7.048896789550782
1746609863.1759236,-1.9862451553344727,-6.472153663635253,7.047690868377686
1746609863.2579231,-2.0125653743743896,-6.564215660095214,7.0555739402771005
1746609863.3538172,-1.9975991249084473,-6.515511512756347,7.067111492156983
1746609863.465204,-1.986802339553833,-6.518802642822265,7.054645538330079
1746609863.545828,-1.9857112169265747,-6.515451908111571,7.049607276916505
1746609863.667264,-1.9970602989196777,-6.505119800567626,7.058303833007813
1746609863.7404006,-1.9928255081176758,-6.523746967315673,7.055244445800782
1746609863.8339736,-1.980162262916565,-6.510665416717528,7.051325321197511
1746609863.946364,-1.9841324090957642,-6.504563808441161,7.058423995971681
1746609864.0268466,-1.9924501180648804,-6.518970012664794,7.051725387573243
1746609864.1436868,-1.9887773990631104,-6.507604122161864,7.050279140472413
1746609864.2191284,-1.9904857873916626,-6.507797241210937,7.0480103492736825
1746609864.3153899,-2.0004305839538574,-6.517988204956054,7.054870128631593
1746609864.4329987,-2.001211404800415,-6.506831645965575,7.061321258544923
1746609864.5069191,-1.9960366487503052,-6.522503376007079,7.05701494216919
1746609864.632494,-1.9758306741714478,-6.499366283416747,7.063063621520997
1746609864.6999874,-1.9985040426254272,-6.509846687316894,7.056781768798829
1746609864.7960284,-1.9854381084442139,-6.503405570983886,7.064429283142091
1746609864.9074378,-1.9960335493087769,-6.524352073669433,7.052991867065431
1746609864.9879184,-1.988118052482605,-6.5162901878356925,7.04923439025879
1746609865.0999103,-1.9907684326171875,-6.526340961456298,7.047377586364747
1746609865.1799126,-1.9771926403045654,-6.512301445007323,7.040403366088868
1746609865.2758543,-2.0048274993896484,-6.527648448944091,7.063828468322755
1746609865.3874474,-1.9816054105758667,-6.512207031249999,7.049543380737306
1746609865.4689753,-1.99260675907135,-6.5244126319885245,7.051486492156983
1746609865.5839696,-1.9968148469924927,-6.513887882232665,7.051626205444337
1746609865.6600254,-1.9950133562088013,-6.537424087524413,7.053487777709962
1746609865.7560437,-1.9991689920425415,-6.513798713684081,7.062126636505128
1746609865.8683975,-1.994897484779358,-6.50687026977539,7.047041893005372
1746609865.9491673,-2.006105899810791,-6.5080575942993155,7.066226482391358
1746609866.0688531,-1.9963525533676147,-6.509780406951903,7.058098316192628
1746609866.1420813,-1.9978150129318237,-6.482407569885253,7.042972087860108
1746609866.2382436,-2.0035245418548584,-6.514904499053954,7.054912567138673
1746609866.3463557,-2.012248992919922,-6.509730339050292,7.070003509521485
1746609866.430031,-1.997719168663025,-6.501762390136718,7.058325767517091
1746609866.549522,-1.9956879615783691,-6.508768558502196,7.058542728424073
1746609866.6221368,-1.993182897567749,-6.508238792419433,7.046100616455079
1746609866.718331,-1.989432454109192,-6.518847942352294,7.059491634368897
1746609866.8364396,-1.9975016117095947,-6.510028362274169,7.056762218475343
1746609866.9132957,-1.9840025901794434,-6.499664783477782,7.052321910858155
1746609867.0251856,-1.9940822124481201,-6.50044822692871,7.045037746429444
1746609867.1033552,-2.0030221939086914,-6.515408992767333,7.057764530181886
1746609867.1992173,-1.9907855987548828,-6.495551586151122,7.057720661163331
1746609867.3076918,-1.996091365814209,-6.511122226715087,7.060039520263673
1746609867.3910437,-2.00827693939209,-6.514821052551269,7.05695676803589
1746609867.50529,-1.994759202003479,-6.506157875061034,7.061571598052979
1746609867.5812097,-1.9931343793869019,-6.520545959472655,7.057291984558106
1746609867.6782238,-1.9939285516738892,-6.516082286834716,7.06598997116089
1746609867.789818,-2.0226833820343018,-6.518776416778564,7.070173740386964
1746609867.8713999,-1.9908215999603271,-6.484619140624999,7.044234275817872
1746609867.9794242,-1.94646155834198,-6.514259338378905,7.042726993560792
1746609868.0643635,-2.009324550628662,-6.523183345794677,7.063031196594239
1746609868.1607835,-2.020745277404785,-6.517866134643554,7.06774139404297
1746609868.2698336,-2.007594585418701,-6.508771896362304,7.081555843353272
1746609868.3501363,-2.008579730987549,-6.525391101837157,7.055718421936036
1746609868.4719272,-1.9909420013427734,-6.509179115295409,7.057433605194093
1746609868.5422409,-1.9940811395645142,-6.531321048736571,7.040405750274659
1746609868.6381867,-1.9710062742233276,-6.506506919860839,7.047194480895997
1746609868.7498827,-1.9464552402496338,-6.5393099784851065,7.014477729797364
1746609868.8335574,-2.0458333492279053,-6.560642719268798,7.071712493896485
1746609868.9469187,-1.9915239810943604,-6.542675971984862,7.044357776641847
1746609869.0253677,-1.9757397174835205,-6.523446083068847,7.051841259002686
1746609869.1194823,-1.9608383178710938,-6.50708770751953,7.0355849266052255
1746609869.2310314,-1.9663149118423462,-6.480410575866698,7.039871692657472
1746609869.3115034,-1.9851042032241821,-6.505657196044921,7.082661151885987
1746609869.433376,-2.0118653774261475,-6.5183162689208975,7.073916912078858
1746609869.512593,-1.9944981336593628,-6.510637283325194,7.052040100097657
1746609869.5995126,-1.9949344396591187,-6.505212783813476,7.0492215156555185
1746609869.7111764,-1.9880681037902832,-6.528684616088866,7.038180351257325
1746609869.7913525,-1.9840024709701538,-6.518949031829833,7.042996883392335
1746609869.9025967,-1.9876511096954346,-6.528939723968505,7.056140899658204
1746609869.986302,-2.001864433288574,-6.52192211151123,7.055769920349122
1746609870.084526,-2.00250506401062,-6.512305259704589,7.0511255264282235
1746609870.2261188,-1.9998921155929565,-6.509794235229491,7.05704164505005
1746609870.2723885,-1.9991546869277954,-6.508764743804931,7.051054477691651
1746609870.3873196,-1.9935226440429688,-6.517565250396728,7.050428390502931
1746609870.4654,-1.9916046857833862,-6.512367725372314,7.0531630516052255
1746609870.5615356,-1.9754798412322998,-6.520910739898681,7.041708946228028
1746609870.673208,-1.9841402769088745,-6.523380279541015,7.05207395553589
1746609870.753575,-2.008885622024536,-6.533883571624755,7.060288429260255
1746609870.866699,-1.996443510055542,-6.494542121887206,7.078712463378907
1746609870.9456134,-2.0062007904052734,-6.499193191528319,7.038877487182618
1746609871.0419931,-1.9802320003509521,-6.493384838104247,7.034818649291993
1746609871.1543915,-2.0049362182617188,-6.574683666229247,7.052265167236329
1746609871.2344654,-1.983838438987732,-6.614913463592528,7.016186714172364
1746609871.3538535,-2.0340635776519775,-6.597026824951171,7.049387931823731
1746609871.4266245,-1.977057695388794,-6.510655879974364,7.036108970642091
1746609871.5225816,-1.993964433670044,-6.5807552337646475,7.025321483612061
1746609871.6359084,-1.9894155263900757,-6.493054389953612,7.059870719909669
1746609871.721792,-2.0187504291534424,-6.520638942718505,7.081409454345704
1746609871.8288312,-1.9523355960845947,-6.442547321319579,7.041741847991944
1746609871.9154367,-1.9988120794296265,-6.58154535293579,7.04424285888672
1746609872.003701,-1.9467869997024536,-6.4549217224121085,7.041539192199708
1746609872.1128316,-1.9812159538269043,-6.546885967254638,7.038071155548097
1746609872.1954932,-1.9957858324050903,-6.526099205017089,7.048006057739259
1746609872.3106537,-2.0216355323791504,-6.542911529541015,7.066496372222901
1746609872.388596,-1.9882549047470093,-6.504699707031249,7.053511142730714
1746609872.4847748,-1.9772084951400757,-6.514479160308837,7.048491954803468
1746609872.593244,-1.988147258758545,-6.502055168151855,7.061914920806886
1746609872.6765978,-1.9812321662902832,-6.513892173767089,7.050356388092042
1746609872.7851908,-1.9907965660095215,-6.520891189575194,7.047348022460938
1746609872.86867,-1.9855910539627075,-6.5149898529052725,7.048599243164063
1746609872.9648488,-2.001413345336914,-6.510765552520751,7.065375328063966
1746609873.0771365,-1.9909932613372803,-6.520327568054198,7.039727687835694
1746609873.1572275,-1.9890856742858887,-6.521842956542968,7.057126045227052
1746609873.2761314,-1.9792779684066772,-6.531041145324706,7.032507896423341
1746609873.3476412,-1.9772340059280396,-6.5035762786865225,7.039888381958009
1746609873.4457185,-2.024956464767456,-6.54396629333496,7.057234764099122
1746609873.5544353,-2.0078845024108887,-6.521445751190185,7.072492599487306
1746609873.6356015,-1.994820237159729,-6.519481658935546,7.045917987823487
1746609873.7522597,-1.991835117340088,-6.502120494842528,7.050860404968263
1746609873.8278117,-1.9938890933990479,-6.501662731170653,7.056523323059083
1746609873.9237275,-2.0056204795837402,-6.495869159698485,7.0658597946167
1746609874.037038,-1.964807152748108,-6.362309932708739,7.142319202423097
1746609874.1157372,-1.9277156591415405,-6.536013603210448,6.958862304687501
1746609874.2324386,-2.0429131984710693,-6.51575756072998,7.05968475341797
1746609874.3218484,-2.0471746921539307,-6.600141048431396,7.082475185394288
1746609874.413931,-2.0065903663635254,-6.465559005737304,7.062894344329835
1746609874.5164351,-2.0056991577148438,-6.559180259704589,7.064301490783692
1746609874.5969667,-1.9845815896987915,-6.510764598846435,7.060796260833741
1746609874.707976,-1.9736000299453735,-6.5073862075805655,7.054136276245118
1746609874.7898366,-1.9924794435501099,-6.5073509216308585,7.054124832153321
1746609874.8865259,-1.9979665279388428,-6.494522094726562,7.075253486633302
1746609874.997526,-1.9987969398498535,-6.500315189361571,7.050402164459229
1746609875.0778751,-1.9937140941619873,-6.50101089477539,7.071673393249513
1746609875.193183,-2.0091516971588135,-6.525082111358642,7.053561210632325
1746609875.270912,-1.9922170639038086,-6.505746841430663,7.033993721008302
1746609875.3668597,-2.002346992492676,-6.54230785369873,7.045023441314698
1746609875.4752142,-2.0028271675109863,-6.52582836151123,7.061293601989747
1746609875.5570111,-2.000706672668457,-6.506813049316405,7.054381847381593
1746609875.6702137,-1.9775440692901611,-6.502509117126464,7.062427043914796
1746609875.751787,-1.990038514137268,-6.471176147460937,7.070577621459962
1746609875.8481212,-1.9830125570297241,-6.556966304779052,7.023382186889649
1746609875.956305,-1.9966737031936646,-6.517590522766112,7.069183349609376
1746609876.0399816,-1.960520625114441,-6.51090383529663,7.061127662658692
1746609876.1644397,-1.9790863990783691,-6.521634578704833,7.033626079559327
1746609876.231969,-1.9816386699676514,-6.503889560699462,7.075446605682374
1746609876.3278794,-1.9900022745132446,-6.521851062774657,7.065949440002442
1746609876.4366636,-1.9775663614273071,-6.487295627593993,7.059146404266358
1746609876.5198627,-1.9853179454803467,-6.520583152770995,7.051541805267335
1746609876.6339602,-1.9961405992507935,-6.514787197113036,7.045381546020509
1746609876.7153695,-2.002872943878174,-6.533309459686278,7.060685634613038
1746609876.8108222,-1.996850848197937,-6.513773441314696,7.05064868927002
1746609876.9176764,-1.9843591451644897,-6.5033273696899405,7.0431766510009775
1746609876.999213,-1.9930381774902344,-6.528155326843261,7.060335636138917
1746609877.1166232,-1.9897013902664185,-6.5141658782958975,7.063234806060792
1746609877.1919653,-1.9821486473083496,-6.513089179992675,7.051716327667237
1746609877.288112,-1.9928476810455322,-6.513666152954101,7.057136535644532
1746609877.3994668,-1.9884685277938843,-6.517372608184814,7.078624725341798
1746609877.4804149,-1.9837387800216675,-6.519487380981444,7.044603824615479
1746609877.5894172,-1.990131139755249,-6.512896537780761,7.0471253395080575
1746609877.67306,-2.077597141265869,-6.395366191864013,7.1480751037597665
1746609877.7692327,-1.9430146217346191,-6.585407733917235,6.959174633026124
1746609877.8776882,-2.0478971004486084,-6.565890312194823,7.050610542297364
1746609877.9613335,-1.9944124221801758,-6.526291847229003,7.0721778869628915
1746609878.0824108,-2.007302761077881,-6.529315471649169,7.06145477294922
1746609878.153435,-1.9764244556427002,-6.505422592163085,7.043018817901612
1746609878.2492573,-1.9932888746261597,-6.522992134094237,7.061543941497804
1746609878.360961,-1.9838588237762451,-6.507389068603515,7.06614112854004
1746609878.4400766,-1.9751298427581787,-6.502995491027831,7.058025360107423
1746609878.5568442,-1.9766676425933838,-6.489728450775146,7.048139095306397
1746609878.6321442,-1.9844815731048584,-6.499343872070312,7.058504581451417
1746609878.7283587,-1.9950329065322876,-6.516807079315185,7.059839725494386
1746609878.8394015,-2.004593849182129,-6.514416694641112,7.05932378768921
1746609878.9203367,-1.9970365762710571,-6.518300533294677,7.057230472564698
1746609879.0507498,-1.9926254749298096,-6.51283836364746,7.0603985786438
1746609879.1152322,-2.004218578338623,-6.533876419067382,7.052878379821778
1746609879.2093153,-1.9779119491577148,-6.506287097930907,7.057642936706544
1746609879.3299427,-1.9959701299667358,-6.516919612884521,7.060839176177979
1746609879.40134,-1.982810378074646,-6.509413719177245,7.0419936180114755
1746609879.5125165,-1.9826277494430542,-6.51538324356079,7.046557426452638
1746609879.5932815,-1.9922908544540405,-6.512908458709716,7.050175189971925
1746609879.6893165,-1.9763439893722534,-6.529746532440185,7.048936367034913
1746609879.8011105,-1.9938372373580933,-6.5054636001586905,7.058956146240235
1746609879.882368,-2.001465320587158,-6.51205825805664,7.047062873840333
1746609879.9964309,-2.002281904220581,-6.495372295379638,7.062594890594483
1746609880.074338,-2.0045435428619385,-6.512073516845702,7.076117992401124
1746609880.1702685,-1.9960004091262817,-6.509062767028808,7.0564212799072275
1746609880.2817688,-2.0062661170959473,-6.510859012603759,7.067942619323731
1746609880.362226,-1.9938459396362305,-6.502760410308837,7.05348825454712
1746609880.4734473,-1.9846267700195312,-6.498153209686278,7.060538768768311
1746609880.554874,-1.9836745262145996,-6.5054378509521475,7.057970523834229
1746609880.6504765,-1.9735828638076782,-6.512906551361083,7.051929950714112
1746609880.7619076,-1.9930027723312378,-6.520489692687987,7.05174732208252
1746609880.8424597,-1.9944759607315063,-6.506284713745116,7.06305742263794
1746609880.964632,-1.9955006837844849,-6.512257575988769,7.061574459075929
1746609881.0354397,-1.992308497428894,-6.506094455718993,7.0582218170166025
1746609881.1314027,-1.9896267652511597,-6.513529300689696,7.058405399322511
1746609881.2491364,-1.9992069005966187,-6.524242401123046,7.054519653320313
1746609881.3244283,-1.9923495054244995,-6.507033348083495,7.058472633361817
1746609881.438226,-1.9906954765319824,-6.511425495147704,7.046211242675782
1746609881.5163906,-1.9967292547225952,-6.509923458099364,7.0524964332580575
1746609881.615138,-1.9905140399932861,-6.509231567382812,7.0494165420532235
1746609881.7309825,-1.987735390663147,-6.523305892944335,7.056271553039552
1746609881.8048038,-1.9922996759414673,-6.5174593925476065,7.053859233856202
1746609881.9191291,-1.9849170446395874,-6.515611171722411,7.060336589813233
1746609881.9977348,-1.9788312911987305,-6.510866165161132,7.0465455055236825
1746609882.0925713,-1.9949818849563599,-6.514009475708007,7.059649467468263
1746609882.2040079,-1.9885220527648926,-6.513737678527831,7.060518264770509
1746609882.2844636,-1.9889835119247437,-6.508625030517577,7.057806015014649
1746609882.3927581,-1.9900261163711548,-6.524549961090087,7.058585643768311
1746609882.4780302,-1.9944504499435425,-6.527883529663085,7.05994462966919
1746609882.5739388,-1.9978817701339722,-6.543286800384521,7.054847717285157
1746609882.684984,-2.0108566284179688,-6.525583744049071,7.070241451263429
1746609882.7661083,-1.9865378141403198,-6.509185791015624,7.041028022766114
1746609882.8795915,-1.9825676679611206,-6.489784240722655,7.062635421752931
1746609882.9586291,-1.9848848581314087,-6.509368419647216,7.054424285888673
1746609883.0545244,-1.987991213798523,-6.500098228454589,7.0605506896972665
1746609883.164038,-1.992802381515503,-6.507744312286376,7.057536125183106
1746609883.2444592,-1.9895055294036865,-6.502215862274169,7.064833164215089
1746609883.361017,-1.9935920238494873,-6.516856670379638,7.059274196624757
1746609883.4367368,-1.9978018999099731,-6.529441356658935,7.056498527526856
1746609883.5325732,-2.0292577743530273,-6.848715305328368,6.902544498443604
1746609883.6444037,-2.0363640785217285,-6.548499584197997,7.122903347015382
1746609883.7276106,-2.0142576694488525,-6.589704036712646,6.976500988006593
1746609883.8470986,-1.997631549835205,-6.539820671081542,7.038992881774903
1746609883.9197469,-2.018141508102417,-6.505841732025146,7.096101760864259
1746609884.0160177,-1.9693421125411987,-6.502992153167724,7.061768054962159
1746609884.1253068,-1.974245548248291,-6.440879344940185,7.051789283752442
1746609884.2056534,-1.9796860218048096,-6.511842250823974,7.073225498199464
1746609884.316778,-1.9869006872177124,-6.502298355102538,7.0426602363586435
1746609884.397695,-1.9904779195785522,-6.502063274383544,7.071300506591798
1746609884.493947,-1.998807668685913,-6.520373821258544,7.049227714538575
1746609884.6052117,-1.995176076889038,-6.542905330657958,7.054800033569337
1746609884.6856954,-1.9985806941986084,-6.515979290008544,7.07545042037964
1746609884.8023226,-1.9763468503952026,-6.546334743499755,7.0451111793518075
1746609884.8785548,-2.014172315597534,-6.52376365661621,7.076884746551515
1746609884.9746237,-1.9640543460845947,-6.532899379730224,6.986370086669923
1746609885.0860803,-2.0109124183654785,-6.5362462997436515,7.066142559051515
1746609885.1667247,-1.9749842882156372,-6.460052490234374,7.061265945434571
1746609885.2837398,-1.9850019216537476,-6.589679241180419,7.007375717163087
1746609885.3585742,-2.059438467025757,-6.524300575256347,7.105610847473145
1746609885.4557343,-2.0027613639831543,-6.551070690155028,7.0607571601867685
1746609885.567198,-2.0069072246551514,-6.5213069915771475,7.066044330596925
1746609885.6475356,-1.9226475954055786,-6.530857563018798,7.027496814727784
1746609885.7666802,-1.979439377784729,-6.501663208007812,7.142460346221925
1746609885.8407562,-1.9827911853790283,-6.554633140563964,7.073741912841798
1746609885.9371815,-1.9989123344421387,-6.450707435607909,7.05774211883545
1746609886.0485013,-1.981428623199463,-6.46153163909912,7.072352409362794
1746609886.1289785,-1.9826163053512573,-6.521090030670165,7.051083564758302
1746609886.2451034,-1.9980723857879639,-6.529784679412841,7.069658756256104
1746609886.3208966,-1.7940278053283691,-6.278666973114013,6.92420244216919
1746609886.417392,-2.0582075119018555,-6.352076530456542,7.27482557296753
1746609886.5344038,-1.9713128805160522,-6.586036205291747,7.0437989234924325
1746609886.6127157,-2.012711763381958,-6.5085811614990225,7.074577808380128
1746609886.723996,-1.9774277210235596,-6.529231548309325,7.062487602233888
1746609886.80207,-1.973453402519226,-6.475581645965575,7.058471679687501
1746609886.899091,-1.9778037071228027,-6.523277759552001,7.040207386016847
1746609887.0062697,-1.9893642663955688,-6.536478996276855,7.036387443542481
1746609887.0898993,-1.9995415210723877,-6.523608207702636,7.054599285125733
1746609887.1980412,-2.018601655960083,-6.5588293075561515,7.054377079010011
1746609887.281989,-1.962659239768982,-6.6227474212646475,7.044150352478028
1746609887.3778932,-2.063473701477051,-6.472309112548827,7.025867938995362
1746609887.4873755,-1.9631112813949585,-6.44652223587036,7.047787666320802
1746609887.57084,-1.923478126525879,-6.441998958587646,7.0734806060791025
1746609887.6849823,-2.00195050239563,-6.5223445892333975,7.082240581512452
1746609887.7627604,-2.0015676021575928,-6.544219017028808,7.055906295776368
1746609887.8590515,-1.9969624280929565,-6.52983808517456,7.046643733978272
1746609887.967347,-1.998026728630066,-6.5412349700927725,7.040650367736817
1746609888.0564196,-1.998602032661438,-6.531963825225829,7.068766593933106
1746609888.1645415,-1.984983205795288,-6.530202388763427,7.056551456451417
1746609888.272658,-1.9918317794799805,-6.477228164672851,7.0584988594055185
1746609888.3398933,-1.9906337261199951,-6.480987548828124,7.067211627960206
1746609888.4484444,-1.998306393623352,-6.5119872093200675,7.076435565948487
1746609888.531847,-1.9702136516571045,-6.460888862609862,7.048424720764161
1746609888.6550462,-1.9821690320968628,-6.529547214508056,7.036104202270509
1746609888.723866,-1.9871879816055298,-6.518878459930419,7.052528381347657
1746609888.818082,-1.9925475120544434,-6.541927814483642,7.062720298767091
1746609888.9354305,-1.9819793701171875,-6.498524665832519,7.051989555358888
1746609889.013424,-1.9928351640701294,-6.523289680480956,7.049213409423829
1746609889.1298273,-1.9947761297225952,-6.507664203643798,7.0559730529785165
1746609889.202065,-1.9925028085708618,-6.523446559906005,7.056932449340821
1746609889.2982614,-1.990422010421753,-6.4952940940856925,7.051671028137208
1746609889.4108198,-1.9901405572891235,-6.522352218627929,7.049081325531007
1746609889.4909134,-1.9756152629852295,-6.505884170532226,7.049654006958009
1746609889.6077173,-1.982639193534851,-6.520359516143798,7.048495292663575
1746609889.6829412,-1.9860607385635376,-6.509177684783935,7.060125350952149
1746609889.7791414,-1.9887659549713135,-6.525460720062255,7.049216747283936
1746609889.8903458,-1.9891597032546997,-6.524444580078124,7.050599098205567
1746609889.9712603,-1.991909384727478,-6.521499633789062,7.052202701568604
1746609890.0857956,-1.9697855710983276,-6.527207851409911,7.056235790252686
1746609890.1639667,-1.9996908903121948,-6.543336868286132,7.049836158752442
1746609890.2601068,-1.9869053363800049,-6.514007568359374,7.059921741485597
1746609890.3715522,-2.0032548904418945,-6.510814666748046,7.064868927001954
1746609890.4519033,-2.010331392288208,-6.52022361755371,7.066180706024171
1746609890.5709383,-1.9762617349624634,-6.517436981201171,7.057388782501222
1746609890.6455078,-1.9774550199508667,-6.512785911560058,7.031618595123292
1746609890.7414112,-1.9643863439559937,-6.497038841247558,7.061961174011231
1746609890.8525298,-1.9698103666305542,-6.516182899475097,7.055967330932618
1746609890.9334228,-1.9749557971954346,-6.508574962615966,7.049044609069825
1746609891.047788,-1.9844228029251099,-6.503252983093261,7.056409835815431
1746609891.1253405,-1.9889098405838013,-6.521088123321532,7.044608116149903
1746609891.2213953,-1.9953101873397827,-6.51489496231079,7.063875675201417
1746609891.3387723,-2.0061912536621094,-6.520139694213866,7.055281639099122
1746609891.415576,-2.0060298442840576,-6.550670146942138,7.054881095886231
1746609891.5358915,-1.981073021888733,-6.511911392211913,7.057253360748292
1746609891.6190202,-1.9660090208053589,-6.504820823669433,7.050909996032716
1746609891.7023916,-1.986146092414856,-6.4720983505249015,7.069799423217774
1746609891.8141632,-1.9787781238555908,-6.453176021575927,7.05219602584839
1746609891.8934534,-2.007310628890991,-6.549728870391845,7.050678253173829
1746609892.0025258,-2.0248794555664062,-6.595825672149657,7.055022716522218
1746609892.086322,-2.0015604496002197,-6.547818183898925,7.036021232604981
1746609892.1833704,-1.992380976676941,-6.528951168060302,7.053900718688966
1746609892.2931924,-1.9845781326293945,-6.504656314849853,7.063550949096681
1746609892.375123,-1.9740099906921387,-6.497096061706542,7.067123413085938
1746609892.4891953,-1.9732263088226318,-6.511765956878661,7.057169437408448
1746609892.5670874,-1.9632288217544556,-6.503983497619628,7.05944061279297
1746609892.663397,-1.9768730401992798,-6.519888401031493,7.047067165374757
1746609892.771775,-1.9979336261749268,-6.516591548919677,7.061875343322755
1746609892.8552032,-1.9981739521026611,-6.522414207458495,7.052800178527833
1746609892.9683685,-1.9977390766143799,-6.527100086212157,7.054425716400147
1746609893.0533602,-1.9882146120071411,-6.521514415740966,7.046296119689942
1746609893.1435335,-1.990510106086731,-6.511410236358642,7.038964271545411
1746609893.2593098,-1.9979968070983887,-6.514844417572021,7.05644178390503
1746609893.3361185,-1.9917528629302979,-6.498998165130614,7.052954673767091
1746609893.4556572,-1.9822617769241333,-6.495788574218749,7.064438819885255
1746609893.5283527,-1.987343192100525,-6.5022234916687,7.05845069885254
1746609893.6244621,-1.977805495262146,-6.508639335632323,7.058179378509522
1746609893.7393537,-1.9886305332183838,-6.519066333770751,7.044478416442872
1746609893.819322,-1.9909945726394653,-6.523979187011718,7.053604602813722
1746609893.9301643,-1.998301386833191,-6.5234689712524405,7.04627275466919
1746609894.0172334,-1.9871275424957275,-6.505852699279784,7.053664207458497
1746609894.1046524,-1.9802578687667847,-6.509658813476562,7.057037353515626
1746609894.2147396,-1.9858022928237915,-6.512468338012694,7.060018062591554
1746609894.2952554,-1.9788870811462402,-6.524190425872802,7.060570716857911
1746609894.412082,-1.920893907546997,-6.537610054016112,7.059465885162354
1746609894.4871852,-1.948598027229309,-6.516048908233642,7.014461040496827
1746609894.58394,-1.910032868385315,-6.4664902687072745,7.034877300262452
1746609894.6946824,-2.014293670654297,-6.5754942893981925,7.086834430694581
1746609894.7753873,-1.91103196144104,-6.510810375213622,7.0274343490600595
1746609894.8861763,-1.965494155883789,-6.485297203063964,7.052869319915772
1746609894.967351,-2.017639636993408,-6.524661064147948,7.064141273498536
1746609895.0633612,-2.0210165977478027,-6.523154735565185,7.0512170791625985
1746609895.174749,-2.005808115005493,-6.523122310638427,7.063993453979493
1746609895.2583344,-2.0039005279541016,-6.520098209381103,7.0442495346069345
1746609895.3773053,-2.037090539932251,-6.561781883239745,7.127612590789796
1746609895.448381,-1.960123896598816,-6.455309391021728,7.040421962738038
1746609895.5457046,-1.979048728942871,-6.47763442993164,7.05278778076172
1746609895.655051,-2.0008482933044434,-6.466542243957519,7.061129093170167
1746609895.7385008,-1.9781038761138916,-6.4940476417541495,7.054339885711671
1746609895.8898735,-2.005134344100952,-6.480481147766112,7.051134586334229
1746609895.9311109,-1.9890351295471191,-6.528267860412597,7.051526546478272
1746609896.0265367,-1.9920964241027832,-6.539901256561278,7.075298309326173
1746609896.13777,-2.0007376670837402,-6.530835628509521,7.050312042236329
1746609896.2175953,-1.989536166191101,-6.526472091674804,7.0504398345947275
1746609896.3443458,-1.9925428628921509,-6.523221015930175,7.065326690673829
1746609896.4131818,-2.0053911209106445,-6.511084556579589,7.05044174194336
1746609896.5068364,-1.9846775531768799,-6.513199806213378,7.037184715270997
1746609896.6182556,-1.988572597503662,-6.506206035614013,7.0692811012268075
1746609896.6986759,-1.9856688976287842,-6.494588375091552,7.044292926788331
1746609896.8071487,-1.9927160739898682,-6.49765920639038,7.0507192611694345
1746609896.8906186,-1.984701156616211,-6.504811763763427,7.041735172271729
1746609896.9864914,-1.9888054132461548,-6.531911373138427,7.047816276550294
1746609897.098042,-1.9859224557876587,-6.523298263549804,7.044031620025636
1746609897.1785734,-1.991753339767456,-6.519949436187743,7.047601222991944
1746609897.2946746,-1.9830526113510132,-6.511873245239257,7.045895576477052
1746609897.370503,-1.9997577667236328,-6.518559932708739,7.049466133117677
1746609897.4666793,-1.997054100036621,-6.526218891143798,7.053152561187745
1746609897.5759249,-1.98311185836792,-6.51404047012329,7.041061878204347
1746609897.6595469,-1.984886646270752,-6.516178131103515,7.053314685821534
1746609897.7728205,-1.977333426475525,-6.4982590675353995,7.04151201248169
1746609897.8517075,-1.992195963859558,-6.503382205963134,7.057892322540284
1746609897.9476316,-1.9878581762313843,-6.511793136596679,7.0496158599853525
1746609898.0594015,-1.9793145656585693,-6.510628223419189,7.057852268218995
1746609898.1395013,-1.98918616771698,-6.506034851074218,7.0698938369750985
1746609898.2627773,-1.9896411895751953,-6.517518520355224,7.045580863952638
1746609898.3326297,-1.9998455047607422,-6.524085521697997,7.054763793945313
1746609898.4288714,-1.9866576194763184,-6.505748271942138,7.056719779968263
1746609898.5374682,-2.006398916244507,-6.530580043792724,7.057548046112061
1746609898.6208138,-1.9904214143753052,-6.507956027984618,7.047399520874024
1746609898.7350333,-1.9929598569869995,-6.514829158782958,7.058794498443604
1746609898.815664,-1.9987694025039673,-6.493778228759765,7.0441651344299325
1746609898.9123852,-1.9888755083084106,-6.528299331665038,7.058051109313966
1746609899.0183187,-1.9904357194900513,-6.508478641510009,7.058743476867677
1746609899.0998192,-1.9897432327270508,-6.499467849731444,7.053847312927247
1746609899.2164125,-1.9893367290496826,-6.494067668914794,7.050707340240479
1746609899.2917414,-1.9897174835205078,-6.5143084526062,7.054275035858155
1746609899.387627,-1.9803839921951294,-6.528230667114257,7.050552368164063
1746609899.499443,-1.9885870218276978,-6.51611042022705,7.0518536567688
1746609899.5795255,-2.003267765045166,-6.542982578277587,7.0583815574646005
1746609899.690551,-1.9778430461883545,-6.479463577270507,7.067235946655274
1746609899.7726734,-1.9865542650222778,-6.53697109222412,7.0487098693847665
1746609899.8688197,-1.9842833280563354,-6.5095505714416495,7.063239574432374
1746609899.979962,-1.9846974611282349,-6.516728401184081,7.058892250061036
1746609900.0607488,-1.9700961112976074,-6.500630855560302,7.048042297363282
1746609900.1768215,-1.995621919631958,-6.504234313964843,7.053704738616944
1746609900.2537758,-1.9832720756530762,-6.520829677581786,7.050896644592286
1746609900.3498838,-2.001418352127075,-6.522077083587646,7.070448398590089
1746609900.4614244,-1.9884898662567139,-6.527362823486327,7.050035953521729
1746609900.5427866,-1.9864490032196045,-6.496605396270751,7.059101104736329
1746609900.6570132,-1.9939405918121338,-6.507308483123778,7.051692485809327
1746609900.7346485,-1.9914023876190186,-6.512814998626708,7.037274837493897
1746609900.8308482,-1.9978394508361816,-6.531414508819579,7.060933589935304
1746609900.9391308,-1.9907245635986328,-6.532394886016845,7.042798995971681
1746609901.0227046,-1.9859418869018555,-6.506938934326171,7.05824375152588
1746609901.1454768,-1.9904640913009644,-6.512389183044433,7.056961059570313
1746609901.215072,-2.0014073848724365,-6.518566608428954,7.055617332458497
1746609901.3146598,-1.9740804433822632,-6.536940574645995,7.0304040908813485
1746609901.4317656,-1.983748197555542,-6.505050659179687,7.0535669326782235
1746609901.5042393,-1.9864425659179688,-6.5261874198913565,7.058643341064454
1746609901.6124399,-1.9946379661560059,-6.497815132141112,7.054192543029786
1746609901.6956959,-1.9710718393325806,-6.509018898010253,7.051196575164796
1746609901.7918305,-1.9925192594528198,-6.497298717498778,7.053985595703126
1746609901.901243,-1.9846200942993164,-6.513507366180419,7.062085151672364
1746609901.9837582,-1.979524850845337,-6.519343852996825,7.048537731170655
1746609902.104091,-1.9922538995742798,-6.510835170745849,7.056509017944337
1746609902.1758063,-1.9980547428131104,-6.5162057876586905,7.055809020996095
1746609902.2729597,-1.983996868133545,-6.511572360992431,7.054817199707032
1746609902.3813589,-1.988532543182373,-6.515081882476806,7.057585239410401
1746609902.465,-1.9751462936401367,-6.504930973052978,7.059428691864015
1746609902.5738013,-1.983394980430603,-6.508152961730956,7.056030750274659
1746609902.655719,-1.9857313632965088,-6.5028648376464835,7.055425643920899
1746609902.7529678,-1.9810073375701904,-6.522433280944823,7.046634197235108
1746609902.8622706,-1.9860697984695435,-6.50650405883789,7.046191692352296
1746609902.9428804,-1.9847514629364014,-6.521552562713622,7.058382034301759
1746609903.0652883,-1.9901686906814575,-6.509867191314696,7.055827140808106
1746609903.1357799,-1.9897443056106567,-6.4941439628601065,7.048598289489747
1746609903.2329907,-1.9772568941116333,-6.510013580322265,7.0403456687927255
1746609903.345872,-1.9754712581634521,-6.508189678192138,7.0440711975097665
1746609903.4249225,-1.9841283559799194,-6.497111797332763,7.053728580474854
1746609903.5390365,-1.9825036525726318,-6.5128393173217765,7.05968189239502
1746609903.618131,-1.9971973896026611,-6.5016231536865225,7.0502991676330575
1746609903.7163181,-2.1859636306762695,-6.578166007995605,7.092628002166749
1746609903.8296618,-1.9140338897705078,-6.432137489318847,7.026515483856202
1746609903.9062629,-2.035123109817505,-6.5085711479187,7.019879341125489
1746609904.0201352,-2.0388548374176025,-6.545479774475097,7.05370855331421
1746609904.09808,-1.9814766645431519,-6.506685733795165,7.0580811500549325
1746609904.1940327,-1.9627810716629028,-6.484496593475341,7.063725471496583
1746609904.3024514,-1.965733528137207,-6.492950439453124,7.058708667755128
1746609904.3859553,-1.9732519388198853,-6.50148057937622,7.059623241424561
1746609904.4942966,-1.9960565567016602,-6.514050483703612,7.04582977294922
1746609904.577964,-1.9984571933746338,-6.516279697418212,7.048190116882325
1746609904.6744463,-1.9926331043243408,-6.517612934112548,7.0576114654541025
1746609904.7854726,-1.9806560277938843,-6.517661571502685,7.039416790008546
1746609904.866104,-1.9845900535583496,-6.516717910766601,7.055212974548341
1746609904.9822352,-1.9735989570617676,-6.507160186767577,7.054975986480714
1746609905.0741851,-1.9795689582824707,-6.508010864257812,7.043547153472901
1746609905.2507384,-1.9869524240493774,-6.513949394226073,7.05102825164795
1746609905.2911627,-1.993428111076355,-6.51958417892456,7.056169033050538
1746609905.3478217,-1.989357590675354,-6.519719600677489,7.057295322418214
1746609905.4946036,-2.0006585121154785,-6.505379676818847,7.053882598876954
1746609905.5395565,-1.9955133199691772,-6.51654815673828,7.059727668762208
1746609905.6365564,-1.9912902116775513,-6.507542133331298,7.061299800872804
1746609905.748488,-1.9872238636016846,-6.51108694076538,7.0504398345947275
1746609905.8303773,-1.9831894636154175,-6.514949321746825,7.048016548156739
1746609905.9523773,-1.9869699478149414,-6.502824306488036,7.060912609100343
1746609906.021028,-1.9805974960327148,-6.507188796997069,7.05577564239502
1746609906.1688786,-1.983060598373413,-6.509356021881103,7.044673919677735
1746609906.2274327,-1.9886417388916016,-6.505175113677978,7.067203044891358
1746609906.321369,-1.9859684705734253,-6.513566017150878,7.050747871398927
1746609906.4816947,-1.9826632738113403,-6.501543998718261,7.0567359924316415
1746609906.57111,-1.994580864906311,-6.5207881927490225,7.058194637298585
1746609906.597658,-1.9987881183624268,-6.50483751296997,7.058627605438233
1746609906.7071712,-1.9981136322021484,-6.498018741607665,7.059381961822511
1746609906.788417,-1.998401403427124,-6.4995360374450675,7.068859100341798
1746609906.903918,-1.992790937423706,-6.514225006103515,7.062138080596925
1746609906.9791543,-1.9834085702896118,-6.516732692718505,7.053034782409669
1746609907.0752811,-1.9739313125610352,-6.506378173828124,7.041116237640382
1746609907.1888041,-1.9698106050491333,-6.489948272705077,7.035509109497071
1746609907.2680109,-1.9676605463027954,-6.521122932434081,7.044230461120606
1746609907.3777287,-2.006145715713501,-6.481570243835448,7.057575702667237
1746609907.46013,-1.990310549736023,-6.496808052062987,7.057783126831056
1746609907.5561178,-1.9952483177185059,-6.52116823196411,7.046669483184815
1746609907.6679401,-1.9805717468261719,-6.508275508880614,7.052728176116944
1746609907.748925,-1.9891631603240967,-6.499750137329101,7.0559635162353525
1746609907.870301,-1.9851751327514648,-6.495415687561034,7.059311866760255
1746609907.9418705,-1.9938455820083618,-6.530460357666015,7.05798625946045
1746609908.0383742,-2.011801242828369,-6.521555423736571,7.056921005249024
1746609908.1466742,-2.011223554611206,-6.537933826446532,7.076039791107179
1746609908.2305253,-1.9940894842147827,-6.591950893402099,7.051812648773194
1746609908.3473742,-1.9826796054840088,-6.5100059509277335,7.079845905303956
1746609908.4221725,-1.973027229309082,-6.516544342041015,7.03710174560547
1746609908.5207675,-1.9853968620300293,-6.536538124084472,7.072372913360597
1746609908.6361213,-1.975582242012024,-6.3161606788635245,7.0936927795410165
1746609908.7106209,-2.075899600982666,-6.595626354217528,7.02935552597046
1746609908.8245096,-2.0642294883728027,-6.6208810806274405,7.005585670471192
1746609908.9026642,-1.9646198749542236,-6.621766567230224,6.998794555664063
1746609908.9983912,-1.9352785348892212,-6.514657497406005,6.988538742065431
1746609909.1078975,-1.8670061826705933,-6.449459552764892,7.023734092712403
1746609909.1891432,-1.972228765487671,-6.521385669708251,7.052216053009034
1746609909.3002436,-2.010866403579712,-6.517445564270019,7.068609237670899
1746609909.3813152,-2.0413942337036133,-6.534343719482421,7.049763202667237
1746609909.4773624,-2.0204925537109375,-6.5328941345214835,7.064274311065675
1746609909.588838,-1.9839345216751099,-6.524226665496825,7.045080184936524
1746609909.6719592,-1.9812487363815308,-6.505234718322753,7.052477359771729
1746609909.785364,-1.9744467735290527,-6.505650043487548,7.0423002243042
1746609909.861576,-1.9902020692825317,-6.503422737121581,7.063307285308839
1746609909.9572544,-1.989559292793274,-6.502583026885985,7.061476707458497
1746609910.074716,-1.9847795963287354,-6.530907630920409,7.042222023010255
1746609910.1522942,-1.983609914779663,-6.500569343566894,7.054130077362061
1746609910.2662337,-1.9816408157348633,-6.512674331665038,7.033152580261231
1746609910.344326,-1.974226474761963,-6.542084217071532,7.061634063720704
1746609910.4405448,-1.9985558986663818,-6.529927730560302,7.055613040924073
1746609910.5489762,-1.9348558187484741,-6.41207456588745,6.979424953460694
1746609910.6325276,-2.0484752655029297,-6.512927532196044,7.073209762573243
1746609910.7518032,-2.037999391555786,-6.547199726104735,7.05907964706421
1746609910.8245187,-1.9543131589889526,-6.524118900299071,7.049345016479493
1746609910.9204838,-1.9648977518081665,-6.54989194869995,7.059049129486085
1746609911.0390663,-1.9749945402145386,-6.5010347366333,7.054309844970704
1746609911.1150827,-1.9958412647247314,-6.526937007904052,7.0588135719299325
1746609911.2209213,-1.9322088956832886,-6.520399570465087,7.027692794799806
1746609911.3046417,-1.9284272193908691,-6.511173725128173,7.054431438446046
1746609911.4006336,-2.0024242401123047,-6.526917934417724,7.022952556610108
1746609911.5092068,-1.9912172555923462,-6.502700805664062,7.044015407562257
1746609911.5939636,-2.0195505619049072,-6.518861293792724,7.076083660125733
1746609911.7067103,-2.0017740726470947,-6.518812179565429,7.063079357147218
1746609911.7845562,-1.9781194925308228,-6.536064147949218,7.04989242553711
1746609911.8804774,-2.014681100845337,-6.503425121307372,7.076062679290772
1746609911.9898975,-1.9707366228103638,-6.5251121520996085,7.033589839935304
1746609912.0734131,-1.9847323894500732,-6.49546718597412,7.037977218627931
1746609912.181756,-1.954121708869934,-6.439049720764159,7.065649032592774
1746609912.265409,-1.9891549348831177,-6.494530200958251,7.08419418334961
1746609912.3618073,-1.9752001762390137,-6.532790184020995,7.046511173248292
1746609912.4699042,-1.9706637859344482,-6.517964839935302,7.028094768524171
1746609912.553551,-1.9667494297027588,-6.529538631439208,7.026675701141358
1746609912.672363,-1.977858066558838,-6.506813526153564,7.0626187324523935
1746609912.747211,-2.007099151611328,-6.515488147735595,7.067418575286866
1746609912.8426673,-2.0081446170806885,-6.599822044372558,7.034942626953126
1746609912.9511,-2.0090620517730713,-6.516942501068114,7.022858619689942
1746609913.0349545,-1.9653570652008057,-6.481141567230224,7.033830165863038
1746609913.1534953,-2.0113749504089355,-6.558289051055907,7.052873134613038
1746609913.2337096,-1.9815822839736938,-6.484444618225097,7.051645278930665
1746609913.3213859,-1.9775341749191284,-6.503105640411376,7.047461509704591
1746609913.4421165,-1.9709352254867554,-6.505436897277831,7.053272247314454
1746609913.5175476,-1.973192811012268,-6.495792865753173,7.0577783584594735
1746609913.6349955,-1.9763660430908203,-6.506543159484862,7.049756050109864
1746609913.7078633,-1.9919337034225464,-6.51422357559204,7.062303543090821
1746609913.8015738,-1.9887198209762573,-6.529897212982177,7.039491653442384
1746609913.9130847,-1.99777352809906,-6.52582025527954,7.059958457946778
1746609913.9936016,-1.9814271926879883,-6.523312091827392,7.087986946105958
1746609914.1095822,-1.9990988969802856,-6.4915990829467765,7.077270030975343
1746609914.1857738,-1.9711145162582397,-6.553989887237548,7.0342350006103525
1746609914.2815878,-1.9790254831314087,-6.5089988708496085,7.067906856536866
1746609914.3944628,-2.0140764713287354,-6.541024208068847,7.070271968841554
1746609914.4735112,-1.9795432090759277,-6.4937472343444815,7.044660091400147
1746609914.5900564,-1.979968786239624,-6.492304325103759,7.04710340499878
1746609914.6686575,-2.02116322517395,-6.538293838500976,7.032628536224366
1746609914.7625582,-1.9579681158065796,-6.501159191131591,7.048259735107423
1746609914.8741405,-1.9930139780044556,-6.5200252532958975,7.056835174560548
1746609914.9544911,-1.986555576324463,-6.497482299804687,7.065321445465089
1746609915.075684,-1.9839911460876465,-6.497589111328124,7.061925888061524
1746609915.1464727,-1.9901607036590576,-6.506978034973144,7.050427913665772
1746609915.2436192,-1.9996576309204102,-6.519114017486571,7.056252002716065
1746609915.3549752,-1.9944863319396973,-6.540271759033202,7.046281337738038
1746609915.4355116,-1.9952657222747803,-6.506848812103271,7.047779560089112
1746609915.5563622,-1.9815083742141724,-6.5059189796447745,7.04860019683838
1746609915.6264808,-1.9937876462936401,-6.504672050476073,7.05712127685547
1746609915.7257104,-1.9762778282165527,-6.548137664794921,7.028069496154786
1746609915.840068,-1.9835131168365479,-6.545546054840087,7.06298589706421
1746609915.9201055,-1.9882193803787231,-6.522705554962157,7.051474571228028
1746609916.0263457,-2.0117199420928955,-6.54650068283081,7.056201457977296
1746609916.1166215,-1.9728976488113403,-6.489050865173339,7.063586711883546
1746609916.2046602,-1.9729173183441162,-6.533031940460204,7.043654441833497
1746609916.3161228,-1.9611979722976685,-6.499750614166259,7.032893180847169
1746609916.3970976,-1.9921053647994995,-6.541976928710937,7.059922695159913
1746609916.5118744,-1.9832429885864258,-6.498661041259765,7.058752059936524
1746609916.589741,-1.9920573234558105,-6.496104717254638,7.068899154663087
1746609916.686026,-1.9763976335525513,-6.514902114868163,7.047337532043458
1746609916.794263,-1.978001594543457,-6.519196033477782,7.057619571685792
1746609916.877767,-1.9667530059814453,-6.535756587982177,7.04969358444214
1746609916.9859269,-1.9678175449371338,-6.468788146972655,7.069484233856202
1746609917.0697632,-1.9494211673736572,-6.472841262817382,7.047056674957276
1746609917.1658268,-1.980419397354126,-6.494188308715819,7.057140350341798
1746609917.2773817,-1.9840019941329956,-6.527609348297118,7.045961856842042
1746609917.3588781,-1.9813194274902344,-6.520215034484862,7.037436962127686
1746609917.477666,-1.9960323572158813,-6.531003475189208,7.058877468109132
1746609917.5487494,-2.0183684825897217,-6.5509276390075675,7.04462480545044
1746609917.6467307,-2.042861223220825,-6.574157238006591,7.061087131500245
1746609917.7552705,-2.0159220695495605,-6.599411964416503,7.087937831878663
1746609917.8387842,-2.138577461242676,-6.446295261383056,7.056737899780274
1746609917.9526794,-1.892738938331604,-6.503554821014403,7.042112350463868
1746609918.0315614,-2.0170555114746094,-6.614862442016601,7.105798244476319
1746609918.127829,-1.944071650505066,-6.459572315216064,7.042142391204835
1746609918.237034,-2.030496835708618,-6.413084030151366,7.084681987762452
1746609918.319524,-2.0156090259552,-6.514389991760253,7.051034927368165
1746609918.4410212,-1.9790043830871582,-6.518734455108642,7.055440425872804
1746609918.5145404,-2.0206010341644287,-6.5140695571899405,7.071131229400636
1746609918.6081285,-1.996822476387024,-6.509449958801269,7.046150207519532
1746609918.7162502,-1.9679192304611206,-6.513359546661376,7.045405864715577
1746609918.7998624,-1.9971104860305786,-6.534921646118163,7.0547876358032235
1746609918.9084318,-1.9845021963119507,-6.500376224517821,7.051904201507569
1746609918.99177,-1.996911883354187,-6.516080379486083,7.056757450103761
1746609919.0877993,-1.9900245666503906,-6.508112430572509,7.048188209533692
1746609919.1965914,-1.9834295511245728,-6.516180992126464,7.063429832458497
1746609919.2781515,-1.9724855422973633,-6.510809421539306,7.055677413940431
1746609919.3949358,-1.9805963039398193,-6.504426956176757,7.058781623840333
1746609919.4708896,-1.9851536750793457,-6.5159263610839835,7.04356861114502
1746609919.5668077,-1.9894412755966187,-6.517651557922362,7.052007198333741
1746609919.6784637,-1.9383183717727661,-6.498076438903808,7.00585699081421
1746609919.7599528,-1.9916108846664429,-6.515193462371825,7.048577785491944
1746609919.8735356,-1.9990037679672241,-6.533399581909179,7.063094139099122
1746609919.9517481,-1.9747636318206787,-6.4950804710388175,7.045159816741944
1746609920.054372,-1.9903465509414673,-6.523409366607665,7.062914371490479
1746609920.1592255,-1.9944850206375122,-6.504180431365966,7.046687126159669
1746609920.2397687,-1.9927756786346436,-6.510996341705321,7.066409587860108
1746609920.3618648,-1.9843003749847412,-6.52835464477539,7.0527663230896005
1746609920.4317956,-1.9840319156646729,-6.499068737030028,7.0668373107910165
1746609920.527912,-1.9879720211029053,-6.505039691925048,7.050985336303712
1746609920.6394787,-1.9767504930496216,-6.500355720520019,7.059198856353761
1746609920.720913,-1.9873175621032715,-6.505746841430663,7.053217887878419
1746609920.8348055,-1.9840774536132812,-6.521355152130126,7.054416179656983
1746609920.9157732,-1.985748052597046,-6.510236740112304,7.055310249328614
1746609921.0180337,-1.9921926259994507,-6.511418819427489,7.060059070587159
1746609921.1206608,-1.9875710010528564,-6.513617038726806,7.057752132415772
1746609921.2008836,-1.98611319065094,-6.520832538604735,7.056958198547364
1746609921.3151417,-1.9860337972640991,-6.505850315093993,7.058258056640626
1746609921.3929617,-2.0347421169281006,-6.594748973846435,7.045773506164552
1746609921.4900637,-1.9633963108062744,-6.489981174468993,7.058167457580567
1746609921.598214,-1.9601024389266968,-6.483531951904296,7.053571701049806
1746609921.6819847,-1.9789624214172363,-6.4808897972106925,7.063615798950196
1746609921.7902186,-1.9663352966308594,-6.481238842010497,7.076361656188966
1746609921.8740659,-1.9971615076065063,-6.5196752548217765,7.05768632888794
1746609921.9700425,-1.9967368841171265,-6.508069038391112,7.06399965286255
1746609922.0819607,-1.9959315061569214,-6.534127235412597,7.047472476959229
1746609922.1620927,-1.99651300907135,-6.522191524505614,7.044699668884278
1746609922.2810276,-1.9814780950546265,-6.515053272247314,7.056722640991212
1746609922.3539505,-1.9757648706436157,-6.517924308776855,7.050452232360841
1746609922.4500108,-1.9702304601669312,-6.502294063568114,7.059736251831056
1746609922.561995,-2.008509635925293,-6.511558532714843,7.076213359832765
1746609922.6429844,-1.9658252000808716,-6.480395793914794,7.067179679870606
1746609922.7570083,-1.996126413345337,-6.526321411132812,7.051066398620606
1746609922.83494,-1.9947190284729004,-6.504487991333007,7.05095386505127
1746609922.9351907,-1.9885231256484985,-6.517632007598876,7.060744762420655
1746609923.0426536,-2.0014097690582275,-6.536425590515136,7.048091411590577
1746609923.1238332,-1.9908385276794434,-6.4933409690856925,7.0446557998657235
1746609923.2381485,-2.056093215942383,-6.51329469680786,7.076380729675294
1746609923.3185904,-1.9606173038482666,-6.513008594512939,7.058244705200196
1746609923.4148517,-2.017777919769287,-6.4893479347228995,7.040391921997071
1746609923.5205758,-1.958832025527954,-6.487020969390868,7.042172431945802
1746609923.6046891,-1.9806855916976929,-6.515628814697265,7.056092262268067
1746609923.7127311,-1.9751393795013428,-6.488200187683105,7.0498366355896005
1746609923.7960167,-2.000757932662964,-6.52495527267456,7.044898033142091
1746609923.8920422,-1.9948045015335083,-6.509131908416747,7.050705432891847
1746609924.0004642,-1.9866304397583008,-6.512516498565673,7.059080123901368
1746609924.0840287,-1.9774597883224487,-6.509160518646239,7.050203323364259
1746609924.198039,-1.9899888038635254,-6.516896247863769,7.064700603485108
1746609924.2759094,-1.9767110347747803,-6.491759300231933,7.053673744201661
1746609924.3723683,-1.9880805015563965,-6.500894546508788,7.064436435699464
1746609924.4832969,-1.9901238679885864,-6.517398834228515,7.05793857574463
1746609924.564436,-1.9793320894241333,-6.504781246185302,7.044752120971681
1746609924.674222,-1.9940986633300781,-6.529892444610595,7.061660289764405
1746609924.7564087,-1.986560583114624,-6.521127223968505,7.0587148666381845
1746609924.85196,-1.9918779134750366,-6.51190423965454,7.044520854949952
1746609924.9637074,-1.9906222820281982,-6.499608516693114,7.063119411468507
1746609925.0441322,-1.9891517162322998,-6.505447387695312,7.05989170074463
1746609925.166461,-1.9954655170440674,-6.52876329421997,7.055716037750245
1746609925.23615,-1.9807170629501343,-6.529589176177978,7.047246456146241
1746609925.3324935,-1.9918098449707031,-6.4839134216308585,7.073499679565431
1746609925.4446068,-1.9842417240142822,-6.503767013549804,7.058753967285157
1746609925.5254526,-1.9693644046783447,-6.518427848815917,7.048713684082032
1746609925.6407204,-1.9894356727600098,-6.507196426391601,7.068878173828126
1746609925.7172308,-1.9642876386642456,-6.494656085968017,7.044301509857179
1746609925.815757,-1.9815791845321655,-6.50167417526245,7.0512661933898935
1746609925.9318984,-1.9921376705169678,-6.526262283325194,7.0532546043396005
1746609926.0062497,-1.9929571151733398,-6.534033775329589,7.05192518234253
1746609926.1229837,-2.000570774078369,-6.503524780273437,7.06526803970337
1746609926.1981227,-2.0073211193084717,-6.515645503997802,7.059580326080323
1746609926.2954552,-1.9775264263153076,-6.52087116241455,7.0481276512146005
1746609926.4038215,-1.997048258781433,-6.532456398010253,7.05724334716797
1746609926.4854534,-1.9849733114242554,-6.5108580589294425,7.055147171020509
1746609926.5943828,-1.9870473146438599,-6.514969825744628,7.064743995666505
1746609926.6791797,-1.977382779121399,-6.504486083984374,7.05323362350464
1746609926.7752223,-1.9894132614135742,-6.5288915634155265,7.052837848663331
1746609926.8835642,-1.990472674369812,-6.497212409973144,7.0558533668518075
1746609926.967158,-1.9826716184616089,-6.5069823265075675,7.05514144897461
1746609927.088495,-1.988508701324463,-6.512856483459472,7.0556888580322275
1746609927.159117,-1.9591602087020874,-6.481714248657226,7.064514636993409
1746609927.2554288,-2.004986524581909,-6.518897533416747,7.061432361602784
1746609927.3636239,-1.9921871423721313,-6.519670963287353,7.059503078460694
1746609927.4487576,-1.9871773719787598,-6.520105361938476,7.052161693572999
1746609927.5620894,-1.9746980667114258,-6.511501789093017,7.047269821166993
1746609927.6409822,-1.9904422760009766,-6.524548053741454,7.054800033569337
1746609927.7363942,-1.990077257156372,-6.51185655593872,7.053406238555909
1746609927.8448446,-1.9888771772384644,-6.516083240509032,7.058091640472413
1746609927.9280202,-1.967151403427124,-6.486955642700194,7.069578647613526
1746609928.0568922,-1.9892879724502563,-6.508391380310058,7.049686908721925
1746609928.1204922,-1.9922679662704468,-6.526977539062499,7.071316719055177
1746609928.2164218,-2.0000874996185303,-6.526325225830077,7.048967361450196
1746609928.3311446,-1.9988600015640259,-6.521063327789306,7.058517456054688
1746609928.4084716,-1.9859297275543213,-6.509855270385741,7.05245065689087
1746609928.5182517,-1.9772893190383911,-6.521399021148681,7.050720214843751
1746609928.6003497,-1.9843140840530396,-6.516852378845214,7.052989006042481
1746609928.6961393,-1.990484595298767,-6.513709068298339,7.059612751007081
1746609928.8077674,-1.9844331741333008,-6.512691020965575,7.058144092559815
1746609928.8881521,-1.9867750406265259,-6.500689029693603,7.063749313354493
1746609929.002358,-1.991971492767334,-6.508336544036864,7.059186458587647
1746609929.0812662,-1.9815548658370972,-6.514768600463866,7.0551466941833505
1746609929.1776633,-1.9954484701156616,-6.493152141571044,7.052372932434083
1746609929.2859118,-1.998477578163147,-6.548532009124755,7.045030117034913
1746609929.367209,-1.9822653532028198,-6.490190982818603,7.016140937805177
1746609929.4783692,-1.9740263223648071,-6.510283946990966,7.061106681823731
1746609929.5604634,-2.00044584274292,-6.521922588348388,7.061232089996339
1746609929.6561115,-1.9858897924423218,-6.4905381202697745,7.0683021545410165
1746609929.7677636,-2.0477473735809326,-6.6344542503356925,7.0779128074646005
1746609929.8486269,-1.975719690322876,-6.469264030456542,7.077359676361085
1746609929.9704397,-1.9833322763442993,-6.524512290954589,7.058956146240235
1746609930.0424643,-1.9992674589157104,-6.532408714294433,7.04579257965088
1746609930.1386921,-1.9954735040664673,-6.513003349304198,7.056244373321534
1746609930.2543335,-1.9882588386535645,-6.498668670654296,7.056339740753175
1746609930.3292887,-2.0276525020599365,-6.530560493469237,7.060497283935548
1746609930.4446456,-1.982828974723816,-6.499565601348876,7.056518077850343
1746609930.5223963,-1.976619005203247,-6.521628856658935,7.049154281616212
1746609930.6184702,-1.9826077222824097,-6.501238822937011,7.057570934295655
1746609930.733261,-1.992933988571167,-6.5268821716308585,7.051094055175782
1746609930.8191726,-1.9723623991012573,-6.498737812042235,7.0487990379333505
1746609930.9245582,-1.9890620708465576,-6.520308971405028,7.051295280456544
1746609931.003054,-1.981255054473877,-6.50316572189331,7.050886154174806
1746609931.0987847,-1.9869980812072754,-6.504139900207519,7.047801971435548
1746609931.2097638,-1.9857791662216187,-6.50592803955078,7.05516529083252
1746609931.2909358,-2.001624345779419,-6.519390106201171,7.055418014526368
1746609931.3987796,-1.993897557258606,-6.514665126800536,7.057264328002931
1746609931.4823246,-1.986228346824646,-6.513071060180663,7.057677745819093
1746609931.579412,-1.9897711277008057,-6.494504928588866,7.05191469192505
1746609931.687805,-1.9875175952911377,-6.503071784973144,7.046930789947511
1746609931.7714257,-1.991932988166809,-6.521979808807372,7.044771194458009
1746609931.8853495,-1.9886943101882935,-6.516425609588622,7.052810668945313
1746609931.9632645,-1.989505410194397,-6.50517177581787,7.053915977478028
1746609932.0594647,-1.9697587490081787,-6.516736507415771,7.071468353271485
1746609932.1678627,-2.016561269760132,-6.476970672607421,7.071065902709962
1746609932.2525513,-1.9832412004470825,-6.482743263244628,7.077077865600587
1746609932.3668244,-1.962937355041504,-6.476778984069823,7.024938106536866
1746609932.4445837,-1.9604260921478271,-6.484984397888183,7.053095817565919
1746609932.5405998,-1.989381194114685,-6.49532127380371,7.070646286010743
1746609932.6487956,-1.9819880723953247,-6.522628307342528,7.047534465789796
1746609932.730503,-1.9872506856918335,-6.514915943145751,7.045037746429444
1746609932.8524318,-1.980688452720642,-6.501442432403564,7.055140495300294
1746609932.9260173,-1.9902050495147705,-6.514394760131835,7.046293258666993
1746609933.0215816,-2.0053341388702393,-6.513157367706298,7.065001010894776
1746609933.1366367,-1.9967952966690063,-6.514307975769042,7.054811477661134
1746609933.2139857,-1.9822444915771484,-6.517774105072021,7.057700157165528
1746609933.3221114,-1.9911789894104004,-6.49557065963745,7.064328193664552
1746609933.405591,-1.9800739288330078,-6.496244430541991,7.0558509826660165
1746609933.502467,-1.983655571937561,-6.508983612060546,7.051105022430421
1746609933.610906,-1.9772541522979736,-6.515615463256835,7.050240993499757
1746609933.691387,-1.987627625465393,-6.51356554031372,7.04939365386963
1746609933.808078,-1.998496651649475,-6.509809017181396,7.053106307983399
1746609933.883481,-1.983603835105896,-6.504281044006347,7.059317588806153
1746609933.9793563,-2.0012927055358887,-6.524611473083495,7.060396194458009
1746609934.0911143,-1.97980797290802,-6.521145343780517,7.054456233978272
1746609934.1743376,-1.9887158870697021,-6.512238979339599,7.055928230285645
1746609934.287594,-1.9942995309829712,-6.483833789825439,7.029700756072999
1746609934.364443,-2.007399082183838,-6.5184383392333975,7.0781593322753915
1746609934.4611921,-1.9637731313705444,-6.462494373321532,7.040290355682374
1746609934.572013,-1.9674040079116821,-6.512252330780028,7.056666851043702
1746609934.652672,-1.9738482236862183,-6.4856219291687,7.056766033172608
1746609934.773854,-2.005112886428833,-6.503918647766112,7.080536842346192
1746609934.84457,-1.9772846698760986,-6.504687786102294,7.050032138824464
1746609934.9405808,-1.9867058992385864,-6.540229320526122,7.04007387161255
1746609935.0524476,-1.9940383434295654,-6.511545181274413,7.050128459930421
1746609935.1354434,-1.99432373046875,-6.53290557861328,7.085904598236085
1746609935.2490945,-2.0035252571105957,-6.526979446411132,7.053678512573243
1746609935.3274612,-1.9661729335784912,-6.526405334472655,7.037814617156983
1746609935.423914,-1.9928967952728271,-6.5631160736083975,7.059313774108888
1746609935.538831,-1.9968464374542236,-6.510852813720702,7.041425704956056
1746609935.618076,-1.9787412881851196,-6.47964859008789,7.069900989532472
1746609935.7297146,-1.9733999967575073,-6.494534969329833,7.054448604583741
1746609935.8078442,-1.9844111204147339,-6.506255149841308,7.059276580810548
1746609935.9016528,-1.9834301471710205,-6.520823001861571,7.046192169189454
1746609936.0132737,-1.9914319515228271,-6.50459337234497,7.06043291091919
1746609936.093824,-1.9894511699676514,-6.511891841888427,7.057146072387696
1746609936.204474,-1.9824694395065308,-6.508924007415771,7.0565552711486825
1746609936.28656,-1.9852280616760254,-6.51257562637329,7.0651540756225595
1746609936.38437,-1.9904534816741943,-6.519819736480712,7.060938358306886
1746609936.4924138,-1.990451693534851,-6.51713466644287,7.057090759277345
1746609936.5755374,-1.9923231601715088,-6.517619609832763,7.05042314529419
1746609936.689635,-1.9806745052337646,-6.501688003540038,7.070600509643556
1746609936.7675467,-1.9811241626739502,-6.507549285888671,7.050372123718263
1746609936.8636875,-1.9914504289627075,-6.516153812408446,7.056907176971436
1746609936.9750226,-1.984775185585022,-6.513781070709228,7.062552928924561
1746609937.0593882,-1.9786852598190308,-6.512343883514403,7.066138267517091
1746609937.169001,-1.9727940559387207,-6.513900756835937,7.047180175781251
1746609937.2474966,-1.9783271551132202,-6.50570249557495,7.0603604316711435
1746609937.3435793,-1.9993425607681274,-6.539637088775634,7.035626411437989
1746609937.4550543,-1.9840203523635864,-6.516188144683837,7.053901672363282
1746609937.5355408,-1.9873231649398804,-6.518277168273925,7.05203676223755
1746609937.6578562,-1.9891066551208496,-6.495697498321532,7.0551538467407235
1746609937.728709,-1.9834730625152588,-6.5204758644103995,7.061873435974122
1746609937.8247066,-1.9763872623443604,-6.527206420898437,7.0415334701538095
1746609937.9423363,-1.991708755493164,-6.505673885345458,7.058187484741212
1746609938.025555,-1.9847259521484375,-6.513054847717284,7.048522949218751
1746609938.126066,-1.9804720878601074,-6.5293331146240225,7.046813964843751
1746609938.2086256,-1.9762986898422241,-6.502140522003173,7.037604808807374
1746609938.3048375,-1.9958529472351074,-6.521569252014159,7.047307014465333
1746609938.4164476,-1.9994676113128662,-6.475949764251708,7.060351848602296
1746609938.497714,-1.9625184535980225,-6.52915334701538,7.052478313446046
1746609938.6117232,-2.0172455310821533,-6.515368461608886,7.0848331451416025
1746609938.6905956,-1.9247641563415527,-6.5471177101135245,7.039875507354737
1746609938.7866418,-1.9443382024765015,-6.5066537857055655,7.032060623168946
1746609938.8950672,-2.003993272781372,-6.502656459808349,7.064450263977052
1746609938.9785757,-1.9813330173492432,-6.509350299835204,7.050820827484132
1746609939.0923555,-1.969183087348938,-6.50193691253662,7.06062936782837
1746609939.1688113,-1.9870765209197998,-6.511051177978515,7.0506019592285165
1746609939.2648687,-1.9772895574569702,-6.505985260009765,7.064379692077638
1746609939.3764286,-1.9733246564865112,-6.5288753509521475,7.055445671081544
1746609939.4573588,-1.977523684501648,-6.516405105590819,7.066094875335694
1746609939.57954,-1.9876352548599243,-6.516996383666991,7.0496559143066415
1746609939.649029,-1.9904556274414062,-6.50441551208496,7.053876399993897
1746609939.747788,-1.974055290222168,-6.501858711242675,7.052687644958497
1746609939.8559086,-1.985397219657898,-6.506840705871581,7.055342197418214
1746609939.939571,-1.9872243404388428,-6.521008491516112,7.039537429809571
1746609940.0617924,-1.9918432235717773,-6.521753787994384,7.057702064514161
1746609940.1316442,-1.986595630645752,-6.5077781677246085,7.058551788330079
1746609940.2280588,-1.9899495840072632,-6.5224595069885245,7.0484890937805185
1746609940.3458588,-1.9866482019424438,-6.503581047058105,7.057639122009278
1746609940.4197488,-1.9918051958084106,-6.5227341651916495,7.064984321594239
1746609940.5427966,-1.970822811126709,-6.4997825622558585,7.054752826690675
1746609940.610011,-1.9532848596572876,-6.496984958648681,7.061849594116212
1746609940.7061157,-1.9868406057357788,-6.548895835876464,7.059280395507813
1746609940.8191876,-1.9859784841537476,-6.526570796966552,7.059551715850831
1746609940.899228,-2.0012338161468506,-6.523993492126464,7.057174682617188
1746609941.0100613,-2.0667073726654053,-6.474505424499511,7.070482730865479
1746609941.0907588,-1.9357224702835083,-6.4814085960388175,7.022507667541505
1746609941.1869137,-2.0001742839813232,-6.583492755889892,7.05549192428589
1746609941.2983782,-1.959533452987671,-6.5204806327819815,7.053040504455567
1746609941.3788269,-2.049685478210449,-6.542654514312743,7.10063123703003
1746609941.495173,-2.052712917327881,-6.4694738388061515,7.092308521270753
1746609941.5707903,-1.9460612535476685,-6.501112937927245,7.027946949005128
1746609941.666754,-1.984616994857788,-6.536060333251952,7.057331085205079
1746609941.7783427,-1.99404776096344,-6.551780223846435,7.063746929168702
1746609941.8586757,-1.961140513420105,-6.503553867340087,7.041342735290528
1746609941.9718647,-1.9828870296478271,-6.5190691947937,7.054949760437013
1746609942.059864,-1.9963880777359009,-6.501091480255126,7.067511558532716
1746609942.1501927,-1.986934781074524,-6.508445262908935,7.049108505249024
1746609942.2584052,-1.9718248844146729,-6.526212692260741,7.065843582153321
1746609942.3418481,-1.9991868734359741,-6.499038219451903,7.056352138519288
1746609942.4617634,-1.995055079460144,-6.520519256591796,7.060906887054444
1746609942.5339024,-1.9848028421401978,-6.510657787322997,7.0739455223083505
1746609942.627726,-1.98991858959198,-6.522523880004882,7.053514957427979
1746609942.7403452,-1.9984931945800781,-6.532173633575439,7.051460266113282
1746609942.8229465,-2.005305290222168,-6.536926269531249,7.060203075408936
1746609942.934796,-1.9855985641479492,-6.509981155395507,7.052389144897462
1746609943.018923,-1.9834747314453125,-6.535346031188964,7.050275802612306
1746609943.109377,-1.9607943296432495,-6.514981746673583,7.070050716400147
1746609943.2204964,-1.9665958881378174,-6.509874820709228,7.047882556915284
1746609943.301245,-1.9810854196548462,-6.501769542694091,7.066115856170655
1746609943.4176116,-1.9980711936950684,-6.516294002532958,7.0553617477417
1746609943.4929242,-1.9889006614685059,-6.486994266510009,7.050154685974122
1746609943.588906,-1.9811218976974487,-6.531342983245849,7.050803661346436
1746609943.7015872,-1.999694585800171,-6.518531799316405,7.064153194427491
1746609943.7819831,-2.004976987838745,-6.515002250671386,7.046861648559571
1746609943.890112,-1.9794820547103882,-6.518252372741698,7.051223278045655
1746609943.9750438,-1.9214298725128174,-6.546668529510497,7.0798659324646005
1746609944.071073,-2.020045518875122,-6.4786362648010245,7.062933921813966
1746609944.1793191,-1.9452342987060547,-6.480074882507323,7.046629428863526
1746609944.2628965,-1.9694463014602661,-6.481597423553466,7.061633586883546
1746609944.3819494,-1.988824486732483,-6.496501445770263,7.066245555877686
1746609944.4549515,-1.9920704364776611,-6.51211929321289,7.063213348388673
1746609944.5509474,-1.9917758703231812,-6.4963903427124015,7.037689685821534
1746609944.6605678,-1.9862264394760132,-6.525800228118896,7.062175273895265
1746609944.7444506,-1.9802876710891724,-6.5068979263305655,7.0615859031677255
1746609944.8578448,-2.098806858062744,-6.460464000701903,7.045563220977784
1746609944.9341657,-1.984163522720337,-6.43897533416748,7.048856735229493
1746609945.0299459,-1.9748493432998657,-6.5273189544677725,7.064496040344239
1746609945.1478932,-1.9867215156555176,-6.501311779022216,7.034857749938966
1746609945.2218754,-1.9757146835327148,-6.491265296936034,7.04488754272461
1746609945.3437421,-1.9769943952560425,-6.532550811767577,7.05500078201294
1746609945.4193878,-2.0215542316436768,-6.530066967010497,7.065012931823731
1746609945.5110657,-1.9798908233642578,-6.4961814880371085,7.058337688446046
1746609945.622282,-1.9949119091033936,-6.511539459228515,7.053977966308595
1746609945.702936,-1.9638105630874634,-6.601093769073485,7.1078882217407235
1746609945.8144302,-2.040329694747925,-6.541884422302245,7.109224319458009
1746609945.8948402,-1.9825326204299927,-6.476536750793456,7.067153930664063
1746609945.9910657,-1.9218052625656128,-6.445755004882812,7.026141643524171
1746609946.1024086,-2.0218381881713867,-6.427673339843749,7.080004215240479
1746609946.182884,-1.9573142528533936,-6.4931931495666495,7.082493782043458
1746609946.3020597,-1.9688984155654907,-6.4846482276916495,7.029162883758546
1746609946.37583,-2.0022923946380615,-6.4932470321655265,7.050858974456788
1746609946.4723585,-2.0097920894622803,-6.558388710021972,7.070176601409913
1746609946.5833657,-1.999363660812378,-6.535555362701415,7.057274341583253
1746609946.6639547,-1.978022575378418,-6.521603107452392,7.042742252349854
1746609946.7747922,-1.9779856204986572,-6.501201152801513,7.0513978004455575
1746609946.855952,-1.9842227697372437,-6.51463222503662,7.057120800018311
1746609946.9520197,-1.9818636178970337,-6.531348705291747,7.052478313446046
1746609947.0637538,-1.9862604141235352,-6.533916950225829,7.0586023330688485
1746609947.1439464,-1.985605001449585,-6.5168700218200675,7.053465366363526
1746609947.2661984,-1.9817049503326416,-6.514600753784179,7.040232181549073
1746609947.3364735,-1.9836941957473755,-6.524592399597167,7.044342517852784
1746609947.4318154,-2.0014264583587646,-6.513655185699462,7.060181140899659
1746609947.5433948,-1.9852707386016846,-6.505979537963866,7.047811031341554
1746609947.6251194,-1.975303053855896,-6.50945234298706,7.045063018798829
1746609947.7414324,-1.9830949306488037,-6.511083126068114,7.062141418457032
1746609947.8198943,-1.9881184101104736,-6.5204758644103995,7.0562806129455575
1746609947.9157956,-1.9759246110916138,-6.512070655822753,7.055554389953614
1746609948.0248518,-1.9907965660095215,-6.506378650665282,7.0686683654785165
1746609948.1052275,-1.981412410736084,-6.517653465270995,7.059072017669679
1746609948.2221394,-1.9818754196166992,-6.518276691436767,7.057873725891114
1746609948.2979217,-1.9894384145736694,-6.5085716247558585,7.0519437789917
1746609948.3941977,-1.9884042739868164,-6.515408992767333,7.053039073944093
1746609948.5055315,-1.9894447326660156,-6.507180213928222,7.063395023345948
1746609948.5860002,-1.983518123626709,-6.520616054534911,7.058958053588868
1746609948.6942322,-1.9727321863174438,-6.510968208312987,7.047798156738282
1746609948.7779891,-1.9836255311965942,-6.512784481048583,7.0568251609802255
1746609948.8740194,-1.99102783203125,-6.514375686645507,7.0540127754211435
1746609948.986078,-1.9841279983520508,-6.501471519470214,7.068821907043458
1746609949.0659928,-1.9804905652999878,-6.493125915527343,7.065535068511964
1746609949.1832194,-2.1307291984558105,-6.446625232696532,7.087194442749024
1746609949.258094,-1.8700073957443237,-6.425793647766112,7.0331130027771005
1746609949.3540573,-2.0259032249450684,-6.580146312713622,7.063701152801515
1746609949.4654458,-2.0262413024902344,-6.562808990478515,7.057511806488038
1746609949.546162,-2.0010483264923096,-6.541921138763427,7.053529739379884
1746609949.6625397,-1.996932029724121,-6.52720546722412,7.053857326507569
1746609949.7380614,-1.9742802381515503,-6.493999004364013,7.046099662780763
1746609949.834189,-1.9902887344360352,-6.504074573516845,7.054988861083985
1746609949.9456584,-1.9801048040390015,-6.501032829284667,7.065636634826661
1746609950.0290549,-1.9898412227630615,-6.507397174835204,7.050246238708497
1746609950.1506238,-1.9863954782485962,-6.5023107528686515,7.05155372619629
1746609950.221059,-1.995922565460205,-6.5137619972228995,7.058255672454835
1746609950.319252,-1.9899041652679443,-6.512432575225829,7.062854766845704
1746609950.436026,-1.9772679805755615,-6.518779277801513,7.052551269531251
1746609950.5092463,-2.0004520416259766,-6.516799926757812,7.065231323242188
1746609950.6190054,-1.9412736892700195,-6.568328857421874,7.097207546234132
1746609950.6996078,-1.9887330532073975,-6.5035128593444815,7.043264865875245
1746609950.7950633,-1.9654829502105713,-6.494804859161376,7.050034523010255
1746609950.9069035,-1.9838359355926514,-6.52013874053955,7.049916744232179
1746609950.986999,-1.9933851957321167,-6.514654636383056,7.0686402320861825
1746609951.1090143,-1.991828203201294,-6.513048648834228,7.0523085594177255
1746609951.1820242,-1.982889175415039,-6.529519081115722,7.050413608551026
1746609951.2780752,-1.9900182485580444,-6.5155014991760245,7.059967994689942
1746609951.3866205,-2.014679431915283,-6.511207103729247,7.038971424102784
1746609951.4721136,-1.9856560230255127,-6.5076818466186515,7.034236431121827
1746609951.5835044,-1.9944063425064087,-6.528227806091308,7.035460948944093
1746609951.6621554,-2.001816987991333,-6.521499633789062,7.06330156326294
1746609951.7582452,-1.9997977018356323,-6.511306285858153,7.046177864074708
1746609951.8682888,-1.9893826246261597,-6.510159015655517,7.03743076324463
1746609951.9480288,-1.984450340270996,-6.5322556495666495,7.061468124389649
1746609952.0886366,-1.9918382167816162,-6.5337510108947745,7.047180175781251
1746609952.1408546,-2.0427494049072266,-6.503282070159911,7.052317619323731
1746609952.2389495,-1.9654688835144043,-6.535341262817382,7.0233545303344735
1746609952.3480167,-1.9715442657470703,-6.505813121795653,7.0561609268188485
1746609952.4293628,-1.967049479484558,-6.5297484397888175,7.061376571655274
1746609952.5458016,-1.9593981504440308,-6.475286006927489,7.060928344726563
1746609952.6212242,-1.9716310501098633,-6.49751329421997,7.055078983306886
1746609952.7197704,-1.9826397895812988,-6.510808467864989,7.051989555358888
1746609952.833281,-1.9891494512557983,-6.495825767517089,7.077148914337159
1746609952.9102986,-2.00369930267334,-6.528497695922851,7.041279792785645
1746609953.0245478,-1.9951401948928833,-6.5145554542541495,7.059584617614747
1746609953.1023877,-1.9807500839233398,-6.511940002441405,7.046832084655763
1746609953.1984084,-1.9810044765472412,-6.500428676605224,7.037160873413087
1746609953.3101883,-2.0050597190856934,-6.5747337341308585,7.039253234863282
1746609953.3903139,-1.9941343069076538,-6.51006269454956,7.0602807998657235
1746609953.5012321,-2.0450026988983154,-6.513458251953124,7.077376365661622
1746609953.5821588,-1.9197876453399658,-6.481687545776366,7.045970916748048
1746609953.6785712,-1.9427577257156372,-6.537983417510985,7.047316551208497
1746609953.7897542,-1.937335729598999,-6.512459278106689,7.051472187042237
1746609953.8701534,-1.9909099340438843,-6.516224861145019,7.008723258972169
1746609953.9903812,-1.9747854471206665,-6.539186477661132,7.031769752502442
1746609954.0632768,-2.017221689224243,-6.621335983276366,7.05535650253296
1746609954.1593177,-2.0123255252838135,-6.505572319030761,7.039057254791261
1746609954.2730982,-2.0099194049835205,-6.4532480239868155,7.01573944091797
1746609954.3554153,-1.9633138179779053,-6.487241744995116,7.051025867462159
1746609954.464428,-1.972290277481079,-6.4833025932312,7.071074962615968
1746609954.543316,-1.982670545578003,-6.470294952392577,7.0659852027893075
1746609954.6429236,-1.978102207183838,-6.494543552398681,7.09229326248169
1746609954.7486336,-1.9488039016723633,-6.585979461669921,7.00350570678711
1746609954.833317,-1.9735928773880005,-6.533795833587646,7.041505813598634
1746609954.9640305,-2.0072972774505615,-6.543497085571288,7.02417802810669
1746609955.0305097,-1.9875431060791016,-6.4924535751342765,7.060726165771485
1746609955.1215985,-1.9925134181976318,-6.540104389190673,7.032459735870362
1746609955.2298667,-1.9971821308135986,-6.475839614868163,7.071953773498536
1746609955.3239646,-1.9926337003707886,-6.465867996215819,7.067742347717286
1746609955.4218976,-1.9945533275604248,-6.543319225311278,7.062537670135499
1746609955.5055194,-1.990867257118225,-6.503875255584716,7.0448694229125985
1746609955.6042538,-1.995697021484375,-6.558743000030517,7.074708938598634
1746609955.7100568,-1.965116262435913,-6.5490379333496085,7.031358242034913
1746609955.7934804,-2.0211198329925537,-6.502885818481444,7.070890903472901
1746609955.907455,-1.9804158210754395,-6.544119358062743,7.047316551208497
1746609955.9852824,-1.9937148094177246,-6.506358623504638,7.055439472198487
1746609956.081519,-1.9928301572799683,-6.496258735656737,7.072808265686036
1746609956.1906867,-1.9713685512542725,-6.519146919250487,7.040441036224366
1746609956.274955,-1.974182367324829,-6.505673885345458,7.0586609840393075
1746609956.3824902,-1.9815702438354492,-6.505356788635253,7.054328441619874
1746609956.4645154,-1.9927390813827515,-6.5089025497436515,7.056298732757569
1746609956.5603955,-1.989753007888794,-6.510748386383056,7.052840232849122
1746609956.671772,-1.9923490285873413,-6.518590450286864,7.05859661102295
1746609956.752322,-1.9912757873535156,-6.518455982208251,7.0518789291381845
1746609956.8738422,-1.9867857694625854,-6.525181293487548,7.048641204833985
1746609956.9453254,-1.9754997491836548,-6.4684152603149405,7.058490276336671
1746609957.0415564,-1.9507263898849487,-6.458177089691161,7.046775817871095
1746609957.1527798,-1.9824631214141846,-6.540666103363036,7.055134296417237
1746609957.2335005,-1.9866256713867188,-6.504432678222655,7.045824527740479
1746609957.3499587,-2.010542631149292,-6.542635917663573,7.068006515502931
1746609957.4255524,-1.9989629983901978,-6.483956813812255,7.061081409454347
1746609957.5213614,-1.9927505254745483,-6.504407405853271,7.055031299591065
1746609957.6404784,-1.9823861122131348,-6.493088722229003,7.0559706687927255
1746609957.7179708,-2.003823757171631,-6.5064330101013175,7.062408447265626
1746609957.8295252,-1.9921444654464722,-6.51236867904663,7.056083202362061
1746609957.9054809,-1.9904402494430542,-6.502120971679687,7.062521934509278
1746609958.0017164,-1.9928499460220337,-6.503283500671386,7.064021587371827
1746609958.1138494,-1.9813613891601562,-6.503656864166259,7.0650053024292
1746609958.1954021,-1.9822590351104736,-6.514513015747069,7.049211025238038
1746609958.3039503,-1.9688282012939453,-6.517610549926757,7.048315048217774
1746609958.387415,-2.00718092918396,-6.507304191589355,7.059949398040772
1746609958.4833982,-1.9832698106765747,-6.518332958221435,7.063948631286622
1746609958.5949068,-2.1381545066833496,-6.323397159576415,6.897611141204835
1746609958.67522,-1.953431487083435,-6.557236671447753,7.079013347625733
1746609958.789338,-1.9462965726852417,-6.513580322265624,7.057661533355714
1746609958.8675025,-1.9572582244873047,-6.4119882583618155,7.044003486633302
1746609958.9648213,-1.9579317569732666,-6.459753990173339,7.045544147491456
1746609959.0774465,-1.9471732378005981,-6.488882064819335,7.048358917236329
1746609959.155036,-1.9758497476577759,-6.507606506347655,7.059007644653321
1746609959.2709377,-1.987808346748352,-6.500945568084716,7.045960426330567
1746609959.3501189,-1.9860351085662842,-6.500382423400878,7.052812099456788
1746609959.4454768,-2.000842809677124,-6.522930622100829,7.048859596252442
1746609959.5537422,-2.007051467895508,-6.5086030960083,7.066185951232911
1746609959.6378963,-1.988203525543213,-6.511452198028564,7.064351558685304
1746609959.7594128,-1.9971240758895874,-6.523312091827392,7.062091827392579
1746609959.8296452,-2.0220630168914795,-6.564128398895263,7.057607173919679
1746609959.9262438,-1.9560149908065796,-6.49091339111328,7.042573928833009
1746609960.0400546,-1.9597405195236206,-6.488745212554931,7.053325653076173
1746609960.1195216,-1.984218716621399,-6.480224132537841,7.06996250152588
1746609960.2265196,-1.9754670858383179,-6.487926006317138,7.059216022491456
1746609960.309669,-1.9720287322998047,-6.508821487426757,7.038386821746827
1746609960.4036403,-1.9852428436279297,-6.472399711608886,7.057779788970948
1746609960.5151827,-1.9899755716323853,-6.485208988189696,7.068401336669923
1746609960.5986977,-1.9732177257537842,-6.502318382263183,7.042195796966554
1746609960.7126274,-1.9662569761276245,-6.49560260772705,7.049041271209718
1746609960.7905269,-1.9951978921890259,-6.4830236434936515,7.07946538925171
1746609960.8866193,-1.9993129968643188,-6.518439769744872,7.0653653144836435
1746609960.9948478,-1.990997552871704,-6.5258092880249015,7.044062137603761
1746609961.07668,-1.9968470335006714,-6.50650930404663,7.060725212097169
1746609961.1871617,-2.0060627460479736,-6.513523578643798,7.0373902320861825
1746609961.2685096,-1.959579348564148,-6.483266830444335,7.053106307983399
1746609961.3644245,-2.0024635791778564,-6.5219054222106925,7.0517263412475595
1746609961.4756978,-1.9852606058120728,-6.47157859802246,7.05918836593628
1746609961.5659225,-1.9581120014190674,-6.468204975128173,7.051002025604249
1746609961.6800475,-1.9668587446212769,-6.5355772972106925,7.048165798187257
1746609961.7495742,-1.9828566312789917,-6.489591598510741,7.058176517486573
1746609961.8455486,-1.9806687831878662,-6.486124515533446,7.077968120574952
1746609961.9574087,-1.998491644859314,-6.5163817405700675,7.047389030456544
1746609962.0376396,-1.9813308715820312,-6.521307945251464,7.0504727363586435
1746609962.1558118,-1.9838231801986694,-6.5100317001342765,7.0446839332580575
1746609962.2327075,-1.988635540008545,-6.521316051483153,7.059918880462647
1746609962.3254907,-1.943276286125183,-6.494916439056396,7.055036067962647
1746609962.4430475,-1.9971872568130493,-6.513048171997069,7.065077781677247
1746609962.5205984,-1.9907474517822266,-6.515047550201415,7.054217815399171
1746609962.6408818,-1.97048020362854,-6.503428936004638,7.035937309265138
1746609962.7106047,-1.9602974653244019,-6.510063648223876,7.037474155426026
1746609962.80687,-1.9991543292999268,-6.536435604095458,7.043164253234864
1746609962.9183545,-1.9935276508331299,-6.514515876770019,7.060019493103028
1746609962.9984474,-1.9911253452301025,-6.483243942260741,7.070722103118897
1746609963.1133614,-1.9780223369598389,-6.506176471710204,7.0619535446167
1746609963.1915178,-1.981276512145996,-6.51728057861328,7.058406352996827
1746609963.287354,-1.9527994394302368,-6.5185484886169425,7.050158977508546
1746609963.397125,-1.9716291427612305,-6.513008594512939,7.057998180389405
1746609963.4806678,-1.9640134572982788,-6.483599662780761,7.068108081817628
1746609963.5945253,-1.975658655166626,-6.498881816864013,7.0623512268066415
1746609963.6725416,-1.9765620231628418,-6.487384319305419,7.068758487701417
1746609963.7685614,-1.9748237133026123,-6.491104125976562,7.047796249389649
1746609963.877598,-1.9997186660766602,-6.519700527191161,7.068044662475587
1746609963.9606218,-1.9791736602783203,-6.499464511871337,7.054676055908204
1746609964.0804482,-1.9834568500518799,-6.500825881958007,7.067756175994874
1746609964.15261,-1.977169394493103,-6.49048900604248,7.06350326538086
1746609964.248751,-1.9731990098953247,-6.50939655303955,7.044641971588136
1746609964.3570073,-1.9829914569854736,-6.507862091064452,7.051939487457276
1746609964.4414766,-1.9831750392913818,-6.498173713684081,7.055011272430421
1746609964.5610511,-1.983264446258545,-6.48937702178955,7.0587220191955575
1746609964.6335406,-1.995485782623291,-6.503945350646972,7.053303241729737
1746609964.7296565,-1.9873696565628052,-6.501504898071288,7.0691189765930185
1746609964.8444374,-1.9876145124435425,-6.492344856262206,7.063746452331544
1746609964.9216,-1.9742510318756104,-6.480062007904052,7.057303428649903
1746609965.0363712,-1.975838541984558,-6.509611129760741,7.057401657104493
1746609965.118004,-1.968065619468689,-6.5019469261169425,7.0485010147094735
1746609965.2105708,-1.9664963483810425,-6.489964962005614,7.051668167114259
1746609965.318979,-1.9956402778625488,-6.504741191864013,7.088901042938233
1746609965.402668,-1.9766062498092651,-6.504754066467284,7.045395851135255
1746609965.5167158,-1.9990553855895996,-6.511876106262206,7.0653347969055185
1746609965.5921464,-1.9957284927368164,-6.51044464111328,7.0624737739563
1746609965.6887305,-1.990570306777954,-6.508221626281737,7.059960365295411
1746609965.800375,-2.003641128540039,-6.527256965637206,7.064733505249024
1746609965.8805442,-1.9870917797088623,-6.517738819122314,7.058690071105958
1746609965.9913778,-1.9949431419372559,-6.5099754333496085,7.065104484558106
1746609966.0760124,-1.99873948097229,-6.510017871856689,7.064159870147706
1746609966.171528,-1.9714068174362183,-6.541176319122314,7.032118320465089
1746609966.2801228,-2.0572853088378906,-6.621973991394042,7.029444694519044
1746609966.3635783,-1.9691578149795532,-6.458195686340331,7.056046009063722
1746609966.4824774,-1.9962754249572754,-6.559699058532714,7.079069137573243
1746609966.5536182,-1.9550769329071045,-6.468479633331298,7.0319252014160165
1746609966.649575,-1.9755271673202515,-6.4741830825805655,7.085947990417481
1746609966.761347,-1.9714611768722534,-6.485394477844237,7.056622982025147
1746609966.8416865,-1.9764615297317505,-6.498235225677489,7.063685894012452
1746609966.9581788,-1.9976093769073486,-6.522155284881591,7.057447433471681
1746609967.0336225,-1.9938898086547852,-6.5121798515319815,7.057399272918702
1746609967.1297286,-2.016526222229004,-6.513775825500487,7.063891887664796
1746609967.2473688,-2.015852451324463,-6.5256590843200675,7.068285942077638
1746609967.3249686,-2.0063984394073486,-6.524244785308837,7.062878131866456
1746609967.4441426,-1.993943214416504,-6.521420001983642,7.055253505706788
1746609967.5173426,-1.9747034311294556,-6.504513263702392,7.05312728881836
1746609967.6200054,-1.9782381057739258,-6.504194736480712,7.062642574310304
1746609967.7226436,-1.975698471069336,-6.492007255554198,7.080028533935548
1746609967.8025148,-1.9846540689468384,-6.49535846710205,7.063828468322755
1746609967.9139984,-1.9817763566970825,-6.525365352630614,7.057848453521729
1746609967.994677,-1.985547661781311,-6.48941946029663,7.063611507415772
1746609968.0915384,-1.9986011981964111,-6.5340209007263175,7.059708118438722
1746609968.2029335,-1.9866225719451904,-6.500125885009765,7.070686340332032
1746609968.2837927,-1.9916915893554688,-6.526888847351073,7.062584877014161
1746609968.3986742,-1.9992218017578125,-6.519418716430663,7.064624786376954
1746609968.4770298,-1.9889034032821655,-6.50041103363037,7.054926872253419
1746609968.572765,-1.9871089458465576,-6.503706455230712,7.066493511199952
1746609968.6825428,-1.9938358068466187,-6.5037755966186515,7.052973747253419
1746609968.7647986,-1.9892300367355347,-6.515063285827636,7.049560546875001
1746609968.8780105,-1.967390537261963,-6.491378784179687,7.036065101623536
1746609968.9572039,-1.981408953666687,-6.526424884796142,7.06753969192505
1746609969.0570908,-2.0140395164489746,-6.530882835388183,7.03857183456421
1746609969.1633391,-2.0069479942321777,-6.507794857025146,7.059199810028077
1746609969.2437742,-2.0029447078704834,-6.535235404968261,7.0519070625305185
1746609969.3658283,-2.0017642974853516,-6.5106821060180655,7.0632104873657235
1746609969.442508,-1.9861255884170532,-6.48991823196411,7.057356357574464
1746609969.5347517,-1.9852092266082764,-6.5195627212524405,7.072749614715577
1746609969.6431708,-1.9586288928985596,-6.473061084747314,7.056800842285157
1746609969.727084,-1.9896886348724365,-6.501929759979247,7.068336963653565
1746609969.8409207,-1.9796611070632935,-6.475514411926269,7.061996459960938
1746609969.9206564,-1.9852088689804077,-6.513089179992675,7.063096046447755
1746609970.0175529,-2.0214080810546875,-6.527099609374999,7.074831008911134
1746609970.1231332,-1.5672070980072021,-7.022512912750243,7.5075979232788095
1746609970.206797,-2.2166755199432373,-6.38444423675537,8.04284381866455
1746609970.3211212,-3.58475923538208,-6.899443626403808,5.71437168121338
1746609970.3970222,-4.763319969177246,-5.075086593627929,6.758270263671876
1746609970.4927955,-0.22759467363357544,-7.807464122772215,12.13186550140381
1746609970.6041393,-5.738768100738525,-5.125295162200927,7.151501178741456
1746609970.6876233,-5.746408462524414,-3.162889242172241,1.2457915544509892
1746609970.7963758,-6.806191921234131,-4.718768119812011,6.654066085815431
1746609970.8795826,-6.678542613983154,-4.071777343749999,8.16393756866455
1746609970.9759686,-7.418806076049805,-3.728983402252197,3.4276661872863774
1746609971.0842817,-5.984910488128662,-2.3087348937988272,7.483214855194092
1746609971.1678226,-4.514705657958984,-3.465277433395385,7.122381687164307
1746609971.2879198,-4.160747528076172,-2.3970065116882315,7.69561767578125
1746609971.3597255,-5.02454948425293,-2.7622475624084464,6.834413528442383
1746609971.455682,-4.589597702026367,-2.1972036361694327,7.504631042480469
1746609971.5640988,-4.680556774139404,-3.3910272121429434,7.675264358520508
1746609971.6478665,-4.841360092163086,-2.903934717178344,6.793334484100342
1746609971.7650764,-4.787402153015137,-3.588670015335082,7.869687557220459
1746609971.8396063,-5.825060844421387,-8.12485599517822,8.26895332336426
1746609971.9360104,-7.664525508880615,-8.659219741821287,9.620164871215822
1746609972.0441248,-4.399359226226807,6.107207775115968,10.447089195251465
1746609972.1279144,-2.8326022624969482,7.093285083770753,5.422807693481444
1746609972.2419825,-2.3511173725128174,9.423922538757324,1.6844196319580067
1746609972.3208146,-1.6450161933898926,9.277679443359375,2.280664205551146
1746609972.4182458,-1.690976619720459,9.63884162902832,2.3623964786529528
1746609972.57559,-1.7578794956207275,9.823850631713867,1.642851948738097
1746609972.6078212,-1.6389751434326172,9.585834503173828,1.9911621809005726
1746609972.718774,-1.6258403062820435,9.567968368530273,1.7599425315856922
1746609972.8009326,-1.8003534078598022,9.634858131408691,2.1337888240814196
1746609972.8970916,-1.613839864730835,9.610498428344727,1.7796013355255116
1746609973.0054193,-1.7550960779190063,9.473469734191895,2.2010233402252184
1746609973.0890033,-1.7992156744003296,9.477529525756836,2.466365575790404
1746609973.2028592,-1.8704214096069336,9.109195709228516,3.273872613906859
1746609973.280969,-2.2152881622314453,8.761333465576172,2.763671159744262
1746609973.3769345,-2.1393015384674072,8.739460945129395,5.98023223876953
1746609973.4853673,-2.245234966278076,8.672569274902344,5.098168373107909
1746609973.5688171,-2.051588535308838,8.807254791259766,4.2672104835510245
1746609973.6789618,-2.0308194160461426,9.056294441223145,3.8916804790496817
1746609973.7618558,-1.9731448888778687,9.109397888183594,3.697705030441283
1746609973.8581057,-1.9561320543289185,9.097870826721191,3.4578025341033922
1746609973.9662876,-2.0307729244232178,9.18982982635498,3.511310815811156
1746609974.0724843,-1.9770479202270508,9.173140525817871,3.4555900096893297
1746609974.1705046,-2.0199146270751953,9.180916786193848,3.5219717025756823
1746609974.2428963,-1.9097812175750732,9.305272102355957,3.5450594425201403
1746609974.3389592,-1.9802863597869873,9.087389945983887,3.460553646087645
1746609974.4478772,-1.9629722833633423,9.178423881530762,3.4129304885864244
1746609974.5949194,-1.9536857604980469,9.200424194335938,3.4048151969909655
1746609974.644976,-2.0219080448150635,9.187739372253418,3.500994205474852
1746609974.722882,-1.9948134422302246,9.204299926757812,3.5087060928344713
1746609974.8195128,-1.9538716077804565,9.168889045715332,3.213823795318602
1746609974.9381843,-1.9316906929016113,9.232096672058105,3.1516177654266344
1746609975.009364,-1.9849233627319336,9.278168678283691,3.3717343807220446
1746609975.1256711,-1.9972589015960693,9.12556266784668,3.4986398220062243
1746609975.2038522,-1.9400686025619507,9.176212310791016,3.2397122383117662
1746609975.299901,-1.9740138053894043,9.219955444335938,3.25948667526245
1746609975.4099026,-1.9838327169418335,9.174158096313477,3.2766554355621325
1746609975.4898186,-1.9517115354537964,9.170266151428223,3.2220103740692125
1746609975.6008365,-1.9615401029586792,9.225617408752441,3.2772662639617907
1746609975.681821,-1.9291563034057617,9.248233795166016,3.3098373413085924
1746609975.777987,-1.9791074991226196,9.175837516784668,3.403013706207274
1746609975.8901317,-1.936864972114563,9.219603538513184,3.365371227264403
1746609975.9701383,-1.9454354047775269,9.184163093566895,3.4008593559265123
1746609976.0925694,-1.9128085374832153,9.029561996459961,3.63481044769287
1746609976.163173,-1.9683295488357544,9.07393741607666,3.7836461067199694
1746609976.2588336,-2.0127298831939697,8.920713424682617,4.019620418548583
1746609976.3704767,-2.0192432403564453,8.934210777282715,4.230325698852538
1746609976.451066,-2.0213520526885986,8.726157188415527,4.283207416534423
1746609976.5705593,-1.9832894802093506,8.696317672729492,4.464826107025146
1746609976.642982,-1.962740421295166,8.691376686096191,4.532021522521972
1746609976.7391632,-2.05023193359375,8.310378074645996,4.666521072387694
1746609976.8504968,-2.002366542816162,8.234563827514648,5.213928699493407
1746609976.9312508,-1.9815139770507812,8.224113464355469,5.264046669006347
1746609977.053479,-1.6790789365768433,8.648913383483887,5.316457748413085
1746609977.12325,-2.3777620792388916,8.090147972106934,6.49936819076538
1746609977.2188895,-2.042396068572998,7.9572391510009775,6.157056808471679
1746609977.3367453,-2.004271984100342,7.831731319427491,5.151882648468017
1746609977.4110744,-2.0732545852661133,8.21681022644043,4.83496332168579
1746609977.5224826,-2.4775960445404053,8.177265167236328,5.9724364280700675
1746609977.6039827,-2.2201781272888184,8.426198959350586,5.07324457168579
1746609977.7021446,-1.9908297061920166,8.73428726196289,3.345425605773925
1746609977.8107622,-1.3426740169525146,7.967316627502442,3.871654033660888
1746609977.8940904,-1.6432873010635376,8.373143196105957,4.3861656188964835
1746609978.0088542,-2.095101833343506,7.712879180908204,4.716863155364989
1746609978.0840485,-2.1841752529144287,8.814410209655762,4.694069862365722
1746609978.1799955,-2.235980272293091,7.446588039398194,4.314679622650146
1746609978.2915347,-2.3037877082824707,8.44801139831543,4.559062004089355
1746609978.37185,-2.1684861183166504,8.685601234436035,4.553334712982177
1746609978.482792,-2.245260715484619,8.375823974609375,4.312992095947265
1746609978.5638251,-2.690840244293213,6.272031784057618,8.820956230163574
1746609978.6631346,-7.322444438934326,8.452725410461428,11.592858314514158
1746609978.771258,-3.694356679916382,2.710459709167482,10.861140251159668
1746609978.855128,-1.3617949485778809,-3.5672249794006334,9.776232719421387
1746609978.9953127,-2.5201947689056396,2.6761560440063485,6.3574628829956055
1746609979.0551665,-1.9325697422027588,4.0038914680480975,12.945165634155273
1746609979.1430387,-2.6939914226531982,1.950960159301759,8.724200248718262
1746609979.2580588,-1.296647310256958,3.400567293167115,7.483825206756592
1746609979.3348863,-0.8119043111801147,4.852686405181886,8.564613342285156
1746609979.4489741,0.18502530455589294,7.266052246093751,5.7029356956481925
1746609979.5269868,-0.45566239953041077,11.457307815551758,3.4290013313293444
1746609979.623281,0.3219394385814667,9.961639404296875,1.386043906211852
1746609979.739064,-0.6717097163200378,11.657118797302246,-1.8923417329788221
1746609979.8212407,-1.4735783338546753,9.688116073608398,0.6545611619949329
1746609979.9298782,-1.6613810062408447,9.49454116821289,0.5628647804260243
1746609980.0083654,-1.7444911003112793,9.24217700958252,1.2443131208419789
1746609980.10424,-1.635644555091858,9.591981887817383,1.2131216526031483
1746609980.2136545,-1.6134512424468994,9.478860855102539,0.6486903429031361
1746609980.2939978,-1.8832794427871704,9.828641891479492,0.9592248797416675
1746609980.4048738,-1.6741364002227783,9.793274879455566,1.22666835784912
1746609980.4859543,-0.7878540754318237,8.966471672058105,1.8395497798919667
1746609980.5821207,-0.5914185643196106,9.937122344970703,1.6410130262374867
1746609980.6935601,-1.0236510038375854,10.24666976928711,1.7925943136215197
1746609980.7751396,-0.7742241024971008,9.706230163574219,1.5943819284439076
1746609980.8892863,-0.4829103946685791,10.24571418762207,1.9799323081970202
1746609980.968409,-0.6869834065437317,9.509818077087402,2.137301445007323
1746609981.064041,-0.8396424651145935,9.464293479919434,2.3440661430358873
1746609981.1745963,-0.676543653011322,9.577829360961914,2.1144070625305162
1746609981.255766,-0.7763024568557739,9.27017879486084,2.2998354434967028
1746609981.369197,-0.8167107105255127,9.724274635314941,2.20830464363098
1746609981.4478443,-0.7737221121788025,9.626309394836426,2.2616896629333483
1746609981.5443087,-0.7433148622512817,9.691712379455566,2.177536010742186
1746609981.6524744,-0.760948121547699,9.59679126739502,2.182854890823363
1746609981.736585,-0.7223164439201355,9.56541919708252,2.121850252151488
1746609981.8554592,-0.6974474191665649,9.585731506347656,2.052881002426146
1746609981.9293551,-0.7097151279449463,9.652641296386719,2.09770631790161
1746609982.0252,-0.6645858883857727,9.57808780670166,2.153065443038939
1746609982.1399288,-0.7381826043128967,9.396056175231934,2.3918972015380846
1746609982.2173421,-0.7473457455635071,9.523932456970215,2.2842538356780993
1746609982.33444,-0.6573862433433533,9.743754386901855,2.1496415138244616
1746609982.4093196,-0.7343065738677979,9.559974670410156,2.23712658882141
1746609982.5052965,-0.6793765425682068,9.601414680480957,2.3465428352355944
1746609982.6137788,-0.6478501558303833,9.536794662475586,2.265155792236327
1746609982.6971555,-0.6997453570365906,9.550494194030762,2.3519659042358385
1746609982.8133652,-0.7029075026512146,9.561066627502441,2.4316823482513414
1746609982.8894863,-0.6849162578582764,9.420182228088379,2.4717409610748278
1746609982.985093,-0.6354823112487793,9.551392555236816,2.4206633567810045
1746609983.0964458,-0.6157602071762085,9.608386993408203,2.3721966743469225
1746609983.1775134,-0.6557176113128662,9.566811561584473,2.4154138565063463
1746609983.287787,-0.6309418082237244,9.56115436553955,2.3340094089508043
1746609983.3691342,-0.7003602385520935,9.459057807922363,2.3746726512908922
1746609983.4650877,-0.6437631249427795,9.583805084228516,2.137698173522948
1746609983.5767758,-0.5682404041290283,9.647134780883789,2.2265062332153307
1746609983.658288,-0.6042996048927307,9.515591621398926,2.485291481018065
1746609983.7785563,-0.6261733770370483,9.57202434539795,2.411047220230101
1746609983.850141,-0.6063402891159058,9.53408432006836,2.441216945648192
1746609983.946187,-0.5944784283638,9.532097816467285,2.4578833580017077
1746609984.0553985,-0.5937022566795349,9.60289192199707,2.4062466621398912
1746609984.1380506,-0.6191373467445374,9.473845481872559,2.5981047153472887
1746609984.2520924,-0.5664217472076416,9.607781410217285,2.38563299179077
1746609984.3300738,-0.6069658398628235,9.538850784301758,2.5736715793609606
1746609984.426308,-0.5862350463867188,9.5553560256958,2.5077466964721666
1746609984.544537,-0.623081386089325,9.553768157958984,2.4784257411956774
1746609984.62148,-0.6304405331611633,9.441892623901367,2.5471427440643297
1746609984.7410545,-0.5679278373718262,9.61127758026123,2.3958830833435045
1746609984.8107522,-0.5861107707023621,9.589847564697266,2.4492259025573717
1746609984.907288,-0.6285576224327087,9.51088809967041,2.533986091613768
1746609985.0157042,-0.5779873132705688,9.528690338134766,2.5610609054565416
1746609985.099453,-0.596350371837616,9.475652694702148,2.581097841262816
1746609985.2072046,-0.6019244194030762,9.476665496826172,2.598577260971068
1746609985.292041,-0.5662861466407776,9.577126502990723,2.528146982192992
1746609985.388332,-0.5795564651489258,9.416543006896973,2.5055849552154528
1746609985.4977632,-0.5858864188194275,9.492589950561523,2.558024168014525
1746609985.581382,-0.6002165675163269,9.561189651489258,2.539688110351561
1746609985.6950812,-0.646653413772583,9.44776439666748,2.6753766536712633
1746609985.77337,-0.5671442151069641,9.638311386108398,2.5122332572937
1746609985.8692164,-0.5755435824394226,9.572208404541016,2.4514789581298815
1746609985.977588,-0.8262796998023987,9.429727554321289,2.649276733398436
1746609986.0613375,-0.5775157809257507,9.348443984985352,2.8158476352691637
1746609986.1756403,-0.5063421726226807,9.522310256958008,2.6707341670989977
1746609986.2536395,-0.5179529786109924,9.499776840209961,2.624608993530272
1746609986.349484,-0.5865393877029419,9.437541961669922,2.781988143920897
1746609986.4650826,-0.6091203689575195,9.413810729980469,2.789021492004393
1746609986.5391183,-0.5605008006095886,9.517422676086426,2.690376043319701
1746609986.6619945,-0.560913622379303,9.40681266784668,2.7287924289703356
1746609986.7343378,-0.540768027305603,9.406540870666504,2.7125210762023912
1746609986.8302183,-0.5236176252365112,9.489392280578613,2.7559530735015856
1746609986.947769,-0.5791876316070557,9.402958869934082,2.802108287811278
1746609987.0232873,-0.5417044162750244,9.43800163269043,2.8162035942077623
1746609987.1472273,-0.5535735487937927,9.482266426086426,2.7535789012908922
1746609987.215521,-0.5379332900047302,9.464377403259277,2.738406181335448
1746609987.3108566,-0.5422968864440918,9.455679893493652,2.888468503952025
1746609987.4200556,-0.537578284740448,9.446721076965332,2.7738928794860827
1746609987.5075498,-0.5509790778160095,9.510109901428223,2.7966682910919176
1746609987.6205988,-0.5333570241928101,9.473007202148438,2.7886276245117174
1746609987.6921122,-0.5433943867683411,9.396645545959473,2.8268082141876207
1746609987.7913463,-0.5364557504653931,9.394950866699219,2.877901792526244
1746609987.8998694,-0.5252237915992737,9.401244163513184,2.782367706298827
1746609987.9816434,-0.5336779356002808,9.338191032409668,2.8400619029998766
1746609988.0972972,-0.5431174635887146,9.433249473571777,2.8184289932250963
1746609988.1745381,-0.5427929162979126,9.458799362182617,2.7659740447998034
1746609988.2737415,-0.4807770550251007,9.447726249694824,2.764757633209227
1746609988.3785343,-0.7189891338348389,9.400039672851562,2.7837495803832994
1746609988.4631858,1.2062656879425049,9.23651123046875,2.895731925964354
1746609988.5823,-0.4610249996185303,9.403467178344727,2.6540708541870104
1746609988.655643,-0.4575446844100952,9.599677085876465,2.739220857620238
1746609988.7513323,-0.5086895823478699,9.057007789611816,2.400521516799926
1746609988.8642614,-0.6091981530189514,9.430760383605957,3.0832207202911364
1746609988.9431133,-0.6112083196640015,9.451443672180176,3.0884256362915026
1746609989.0656917,-0.665693461894989,9.307827949523926,3.150914907455443
1746609989.1351893,-0.61098313331604,9.25654125213623,3.050803422927855
1746609989.2410674,-0.650097668170929,9.388147354125977,3.1901965141296373
1746609989.3426907,-0.6739369630813599,9.430073738098145,3.219464063644408
1746609989.4233217,-0.6260098814964294,9.377347946166992,3.1144213676452623
1746609989.543932,-0.6122349500656128,9.27274227142334,3.215471267700194
1746609989.6191874,-0.544831395149231,9.672125816345215,3.1381146907806383
1746609989.7113175,-0.4766351580619812,9.572306632995605,3.0907237529754625
1746609989.8228917,-0.46592527627944946,9.28094482421875,2.6484065055847155
1746609989.9032104,-0.7597433924674988,10.107621192932129,3.192095041275023
1746609990.012703,-0.5504298806190491,9.513130187988281,3.1468131542205797
1746609990.096275,-0.6150214672088623,9.294318199157715,3.258381843566893
1746609990.192481,-0.633259654045105,9.370400428771973,3.2527294158935534
1746609990.3020103,-0.6815693378448486,9.344125747680664,3.1945803165435778
1746609990.3854034,-0.658815860748291,9.060137748718262,3.140974760055541
1746609990.499312,-0.9467990398406982,9.262393951416016,4.006876945495605
1746609990.5776215,-0.5759162902832031,9.581119537353516,3.2771537303924547
1746609990.6733172,-0.6841773986816406,9.303288459777832,3.360643863677977
1746609990.7819588,-1.686581015586853,8.193466186523438,5.374222755432128
1746609990.8653584,-0.6389864683151245,8.959677696228027,3.738546609878539
1746609990.978444,-0.7234322428703308,9.198472023010254,3.6737475395202623
1746609991.060089,-0.672571063041687,8.20652961730957,3.5242927074432364
1746609991.1535513,-0.6249412894248962,9.10733699798584,3.594208955764769
1746609991.2672007,-0.4831755757331848,9.162710189819336,3.1885190010070787
1746609991.3457658,-2.839820146560669,3.6398344039917006,11.225640296936035
1746609991.4654205,-1.6100279092788696,6.330915451049806,7.655550956726073
1746609991.5374308,-1.404287338256836,6.687734603881837,6.902287006378173
1746609991.6333728,-1.5120658874511719,6.415208339691163,7.427133083343505
1746609991.74159,-1.4632121324539185,6.364512443542481,7.377337932586669
1746609991.8262894,-1.4655135869979858,6.418462276458741,7.40885829925537
1746609991.9391942,-1.4603835344314575,6.376649856567384,7.357673168182372
1746609992.0241265,-1.4581736326217651,6.361145973205567,7.4146971702575675
1746609992.1138382,-1.4695115089416504,6.353534698486329,7.371368408203124
1746609992.222176,-1.456631064414978,6.350825309753419,7.397597312927245
1746609992.3057067,-1.4655107259750366,6.323351860046388,7.424938201904296
1746609992.4221308,-1.4745440483093262,6.314850807189942,7.427450656890868
1746609992.4985428,-1.493778109550476,6.300143241882325,7.4385666847228995
1746609992.5945237,-1.4762544631958008,6.28654956817627,7.456035614013671
1746609992.7029061,-1.4660885334014893,6.255874156951905,7.4408907890319815
1746609992.7863758,-1.477888822555542,6.280935764312745,7.456706523895263
1746609992.8944798,-1.4858657121658325,6.278945922851563,7.429543018341064
1746609992.9782548,-1.4458757638931274,6.316033840179444,7.335726737976073
1746609993.0743527,-1.4355957508087158,6.253440856933595,7.435526371002196
1746609993.1838574,-1.4757975339889526,6.269255161285401,7.479790210723876
1746609993.2679777,-1.4778400659561157,6.220995903015138,7.436567783355712
1746609993.3832138,-1.4807997941970825,6.213950634002686,7.455585956573485
1746609993.4595952,-1.4813458919525146,6.217332363128663,7.493300914764403
1746609993.555348,-1.502773642539978,6.2092022895813,7.51250123977661
1746609993.6637716,-1.497686505317688,6.204829692840577,7.508962154388427
1746609993.747359,-1.4883098602294922,6.2199039459228525,7.494633674621581
1746609993.8624954,-1.487494945526123,6.19308090209961,7.483708381652831
1746609993.9383087,-1.4833768606185913,6.210958003997804,7.487982749938964
1746609994.0344203,-1.4958455562591553,6.203014850616456,7.512052536010741
1746609994.1463,-1.4204789400100708,6.299877643585206,7.440320968627929
1746609994.2304106,-1.3379929065704346,5.089450359344483,7.724473476409911
1746609994.3492098,-1.3747583627700806,6.041218280792237,6.680517673492431
1746609994.4186008,-1.6345125436782837,5.841477394104005,7.955548763275146
1746609994.5238574,-1.4213201999664307,6.290153980255128,7.562675952911376
1746609994.6259553,-1.3509079217910767,6.3112549781799325,7.420593261718749
1746609994.709564,-1.3664259910583496,6.1364383697509775,7.611388206481933
1746609994.8182867,-1.477320909500122,6.060277462005616,7.447011470794677
1746609994.9017243,-1.5500460863113403,6.085055828094483,7.6266088485717765
1746609994.9975538,-1.5326300859451294,6.12619972229004,7.579143524169921
1746609995.1061707,-1.5236072540283203,6.027427196502686,7.608046531677245
1746609995.189457,-1.5312695503234863,6.204968452453614,7.575706481933593
1746609995.3037019,-1.4656106233596802,6.128851890563966,7.442808151245116
1746609995.3815947,-1.5250053405761719,6.09761142730713,7.646782875061034
1746609995.477456,-1.4902762174606323,6.135215282440186,7.498519420623778
1746609995.5859647,-1.4904553890228271,6.112668037414552,7.551437377929687
1746609995.6673586,-1.530515432357788,6.111052989959718,7.58313226699829
1746609995.7787118,-1.4743709564208984,6.124564170837403,7.507797241210937
1746609995.8603797,-1.5234872102737427,6.090810775756837,7.609538078308105
1746609995.9566195,-1.5021276473999023,6.113759517669679,7.547276496887206
1746609996.074987,-1.511877417564392,6.105265617370606,7.57789134979248
1746609996.1490088,-1.5003702640533447,6.108851432800294,7.550794124603271
1746609996.2710974,-1.311972737312317,6.128210067749024,7.638825893402099
1746609996.3406284,-1.5549176931381226,6.034008979797364,7.584920406341552
1746609996.4364152,-1.4857724905014038,6.153796195983888,7.586575031280517
1746609996.5478508,-1.4880516529083252,6.121716976165772,7.575202465057372
1746609996.629559,-1.513436198234558,6.078852653503419,7.567624568939208
1746609996.743262,-1.5068567991256714,6.089256763458253,7.564679622650146
1746609996.8214712,-1.5015984773635864,6.105511188507081,7.572693347930907
1746609996.9210246,-1.5134270191192627,6.073136806488038,7.571137905120849
1746609997.0386028,-1.5235525369644165,6.087140083312989,7.577218055725097
1746609997.109718,-1.4668461084365845,6.08109474182129,7.539753437042235
1746609997.2237892,-1.3793919086456299,6.240872383117677,7.597747325897216
1746609997.302701,-1.4728714227676392,5.750681400299073,7.518914222717284
1746609997.3984363,-1.55877685546875,6.080484867095948,7.578470706939696
1746609997.5069704,-1.5618059635162354,6.044548511505128,7.670746326446532
1746609997.590323,-1.480986475944519,6.06163501739502,7.526106357574462
1746609997.6986952,-1.5143871307373047,6.034354209899903,7.600916862487792
1746609997.78296,-1.5308431386947632,6.11022710800171,7.616899967193603
1746609997.8785067,-1.5154643058776855,6.07664442062378,7.600426673889159
1746609997.9899862,-1.7716058492660522,6.071004867553712,7.620073795318603
1746609998.071173,-1.440566897392273,6.1623926162719735,7.531059265136718
1746609998.1880696,-1.4665247201919556,5.977406024932862,7.521041393280028
1746609998.2640219,-1.4952924251556396,6.110301017761231,7.594368457794189
1746609998.3591394,-1.5157716274261475,6.0484914779663095,7.585659980773925
1746609998.4697905,-1.5071101188659668,6.107580184936524,7.575875759124755
1746609998.5505414,-1.5043150186538696,6.007204055786134,7.582277297973632
1746609998.6646876,-1.4997020959854126,6.075733184814454,7.522521495819091
1746609998.744657,-1.5301952362060547,6.010408401489259,7.610301971435546
1746609998.840617,-1.5091941356658936,5.9968323707580575,7.598459243774413
1746609998.9491317,-1.5309733152389526,6.0466017723083505,7.621488571166991
1746609999.0306394,-1.5265169143676758,6.01637887954712,7.607843399047851
1746609999.154969,-1.5124410390853882,6.032524585723878,7.602181434631347
1746609999.2248151,-1.5115792751312256,6.02922821044922,7.611619472503661
1746609999.3240225,-1.5134735107421875,6.023558139801026,7.603545665740966
1746609999.436311,-1.5285148620605469,6.026435852050782,7.632526874542235
1746609999.5139863,-1.5152114629745483,6.0302724838256845,7.608073234558105
1746609999.6227562,-1.5096254348754883,6.019939422607423,7.63931655883789
1746609999.7055383,-1.528681755065918,6.028967857360841,7.610395908355712
1746609999.801687,-1.5270816087722778,5.958808898925782,7.642127037048339
1746609999.9102426,-1.5366343259811401,6.03878402709961,7.637148857116698
1746609999.9941638,-1.5337541103363037,6.02260446548462,7.628926753997802
1746610000.1110663,-1.5371037721633911,6.02580738067627,7.620765686035155
1746610000.185703,-1.5129436254501343,6.030892848968507,7.6178903579711905
1746610000.2820885,-1.502809762954712,6.005916595458985,7.601985454559325
1746610000.3901038,-1.5036816596984863,6.037986278533936,7.602643013000487
1746610000.4735005,-1.3941494226455688,6.236847400665284,7.190310478210448
1746610000.5819204,-1.5135153532028198,6.208399295806886,7.62711477279663
1746610000.6665235,-1.5574222803115845,5.926775932312013,7.603736400604247
1746610000.7599785,-1.433629035949707,6.039727210998536,7.5715270042419425
1746610000.8717299,-1.59916090965271,5.761098861694337,7.691878795623778
1746610000.9525926,-1.5477231740951538,5.969223976135255,7.607359886169433
1746610001.0836618,-1.6150275468826294,5.991659164428712,7.672390937805175
1746610001.1448445,-1.506339430809021,6.011827945709229,7.559415340423583
1746610001.2405999,-1.549006462097168,6.037485122680665,7.621715068817138
1746610001.352106,-1.532837986946106,5.971728801727296,7.638474941253661
1746610001.432592,-1.5252169370651245,5.98517656326294,7.638042926788329
1746610001.5495288,-1.5407301187515259,5.994482994079591,7.65474510192871
1746610001.6274056,-1.5122199058532715,6.000657558441163,7.636178493499755
1746610001.723632,-1.5232282876968384,5.990600109100343,7.612324714660644
1746610001.8425078,-1.5024710893630981,5.992462635040284,7.623887538909911
1746610001.9236834,-1.5430901050567627,5.989936351776124,7.676052570343017
1746610002.0303016,-1.498058557510376,6.007876873016358,7.6089134216308585
1746610002.1057577,-1.524593472480774,5.977344989776612,7.648598670959472
1746610002.2015285,-1.511452317237854,5.998791217803956,7.614966869354247
1746610002.3133814,-1.5402835607528687,5.99775266647339,7.655181884765624
1746610002.3936248,-1.539001226425171,5.982513427734376,7.646548271179198
1746610002.5046866,-1.517991304397583,5.988332748413087,7.648919105529784
1746610002.5855,-1.528428077697754,5.955142498016358,7.639769554138183
1746610002.6822062,-1.524977684020996,5.987133502960206,7.657727718353271
1746610002.797643,-1.5204976797103882,5.982720375061036,7.638854026794433
1746610002.9065409,-1.539603352546692,5.992968082427979,7.639669895172118
1746610002.9906337,-1.5278732776641846,5.986764430999757,7.645177364349364
1746610003.0667617,-1.5329715013504028,5.973460197448731,7.628771781921386
1746610003.1634989,-1.518991231918335,5.96801519393921,7.635243415832519
1746610003.2721176,-1.5306285619735718,5.971239566802979,7.666003227233886
1746610003.3610184,-1.526701807975769,5.964208602905274,7.6545772552490225
1746610003.4698043,-1.5393824577331543,6.005061626434327,7.638324737548827
1746610003.5475197,-1.5464155673980713,5.929830074310304,7.647204399108886
1746610003.6435192,-1.5485092401504517,5.988532543182374,7.656219005584716
1746610003.753119,-1.5351966619491577,6.013677120208741,7.663438320159911
1746610003.8369105,-1.5578930377960205,5.9535489082336435,7.6696224212646475
1746610003.9578516,-1.5138847827911377,5.966606616973878,7.63101577758789
1746610004.0276103,-1.5195624828338623,5.968788623809815,7.634472846984862
1746610004.1236346,-1.5092395544052124,5.962709903717042,7.623956680297851
1746610004.235245,-1.533758282661438,5.979905605316163,7.6706504821777335
1746610004.3211412,-1.485692024230957,5.957833766937257,7.614483356475829
1746610004.4262989,-1.519132137298584,5.963321208953858,7.632919788360595
1746610004.509811,-1.5420448780059814,5.999834060668946,7.642027854919433
1746610004.6057088,-1.5351215600967407,5.958718776702882,7.591427326202392
1746610004.7142522,-1.5526877641677856,5.983941555023194,7.622865200042724
1746610004.7975886,-1.5446697473526,5.947402477264405,7.62998342514038
1746610004.9132376,-1.53982675075531,5.959636688232423,7.679387092590331
1746610004.9895823,-1.5598008632659912,5.940847396850587,7.633878707885741
1746610005.0857635,-1.5769109725952148,5.98677158355713,7.6944613456726065
1746610005.1940715,-1.6342097520828247,5.936452388763429,7.777803421020507
1746610005.27856,-1.5003348588943481,5.9616689682006845,7.612994670867919
1746610005.3869803,-1.4866670370101929,5.940577507019044,7.672797679901122
1746610005.4685643,-1.5728951692581177,5.950683593750001,7.585276126861571
1746610005.564747,-1.4994770288467407,5.98073434829712,7.639973163604735
1746610005.6762161,-1.508091688156128,5.944672107696534,7.602113723754882
1746610005.7585075,-1.5393480062484741,5.947596549987794,7.671395301818847
1746610005.8776815,-1.5414845943450928,5.922499179840089,7.668053627014159
1746610005.9507499,-1.5542733669281006,5.93187427520752,7.675789833068847
1746610006.046697,-1.5444146394729614,5.926712036132813,7.672603130340575
1746610006.1551802,-1.5454401969909668,5.9396352767944345,7.661704540252685
1746610006.2396328,-1.530475378036499,5.935670852661134,7.646577358245849
1746610006.3538048,-1.3067792654037476,6.147770881652833,7.722723960876464
1746610006.4316566,-1.6954485177993774,6.120962619781495,7.605907917022704
1746610006.527655,-1.4007594585418701,5.868613243103028,7.536955833435058
