timestamp,ax,ay,az
1746608945.5079982,-1.2282748222351074,-6.469225883483886,7.072861194610597
1746608946.0647986,-1.2631309032440186,-6.585858345031737,7.150706291198731
1746608946.3293405,-1.2827630043029785,-6.604669570922851,7.185706615447999
1746608946.6065407,-1.2827630043029785,-6.604669570922851,7.185706615447999
1746608946.8968039,-1.2610282897949219,-6.569923400878905,7.1602869033813485
1746608947.2143893,-1.26780104637146,-6.570599079132079,7.169987201690675
1746608947.4992476,-1.271496295928955,-6.559554576873778,7.151190757751466
1746608947.8141572,-1.271496295928955,-6.559554576873778,7.151190757751466
1746608948.0769823,-1.233251690864563,-6.5031371116638175,7.177886486053468
1746608948.3987153,-1.233251690864563,-6.5031371116638175,7.177886486053468
1746608949.047638,-1.2487869262695312,-6.567550182342528,7.167781352996827
1746608949.3935,-1.2748298645019531,-6.70907163619995,7.155331611633302
1746608949.7459705,-1.3135772943496704,-6.475255012512206,7.080873966217042
1746608950.4286137,-1.250565767288208,-6.555211067199706,7.163950443267823
1746608950.7862027,-1.264970302581787,-6.602779865264892,7.150637149810792
1746608951.1594896,-1.265581727027893,-6.579607963562011,7.167785644531251
1746608951.8808944,-1.2625913619995117,-6.5662875175476065,7.165697574615479
1746608952.2596333,-1.2503987550735474,-6.571579933166503,7.15860939025879
1746608953.568623,-1.266044020652771,-6.574659824371337,7.177772521972657
1746608953.9373376,-1.2604941129684448,-6.558420181274413,7.162852287292481
1746608954.3744533,-1.260278582572937,-6.572984218597411,7.171462059020997
1746608954.8003955,-1.279524564743042,-6.454887866973876,7.16973638534546
1746608955.2318037,-1.279524564743042,-6.454887866973876,7.16973638534546
1746608955.6345038,-1.2465064525604248,-6.541588783264159,7.149103641510011
1746608956.498755,-1.270851969718933,-6.596092700958251,7.153460025787354
1746608956.9426086,-1.2539821863174438,-6.577380657196044,7.1526517868042
1746608957.404316,-1.2539821863174438,-6.577380657196044,7.1526517868042
1746608957.8012362,-1.2408127784729004,-6.601644992828368,7.115953445434571
1746608958.0905602,-1.249183177947998,-6.551325321197509,7.1818838119506845
1746608958.1000228,-1.25844407081604,-6.573276996612548,7.1659021377563485
1746608958.1143718,-1.2600071430206299,-6.569326877593993,7.171733856201173
1746608958.1281168,-1.255448341369629,-6.576523303985595,7.1636953353881845
1746608958.1416407,-1.2665282487869263,-6.579339981079101,7.150509834289552
1746608958.1577926,-1.268101692199707,-6.644605159759521,7.155505657196046
1746608958.171147,-1.289414644241333,-6.5377769470214835,7.126139640808106
1746608958.1934674,-1.2517586946487427,-6.597454071044921,7.1582679748535165
1746608958.2025223,-1.2487143278121948,-6.549031257629394,7.165637969970704
1746608958.2125823,-1.2520806789398193,-6.563397407531737,7.155822277069093
1746608958.2220895,-1.2396798133850098,-6.578948020935058,7.15423345565796
1746608958.2570808,-1.2703139781951904,-6.597891330718993,7.174454212188722
1746608958.2737455,-1.2334315776824951,-6.565488815307616,7.178350448608399
1746608958.290984,-1.2615560293197632,-6.571796417236327,7.150434017181397
1746608958.3138568,-1.254324197769165,-6.58167552947998,7.1620192527771005
1746608958.3265643,-1.2745829820632935,-6.664544105529784,7.174284458160401
1746608958.3505247,-1.2564195394515991,-6.56462526321411,7.164798259735108
1746608958.3666422,-1.26036536693573,-6.557660579681396,7.174042701721192
1746608958.3857458,-1.2429240942001343,-6.579725742340087,7.150618076324464
1746608958.4054945,-1.2464162111282349,-6.596896171569823,7.1784915924072275
1746608958.4318786,-1.265138864517212,-6.608728885650634,7.156261920928956
1746608958.4475071,-1.2499723434448242,-6.585965156555175,7.156728744506837
1746608958.461528,-1.2644704580307007,-6.585421562194823,7.168715476989747
1746608958.475275,-1.2565388679504395,-6.557755470275878,7.151321411132813
1746608958.4887664,-1.2991994619369507,-6.5904808044433585,7.157609462738038
1746608958.5019934,-1.279860496520996,-6.50896120071411,7.229401111602784
1746608958.5167117,-1.268462061882019,-6.635692119598388,7.1354618072509775
1746608958.530255,-1.2571873664855957,-6.574043750762939,7.161445140838624
1746608958.5438328,-1.2549487352371216,-6.593262195587157,7.168278694152833
1746608958.5577066,-1.244692325592041,-6.571788787841796,7.175718307495118
1746608958.572266,-1.2761645317077637,-6.562726974487304,7.152173995971681
1746608958.585956,-1.2557202577590942,-6.513529300689696,7.201648712158204
1746608958.5996459,-1.2706507444381714,-6.622528553009032,7.160214424133302
1746608958.6145668,-1.2989842891693115,-6.573733329772948,7.224097251892091
1746608958.628612,-1.2489433288574219,-6.613622188568114,7.180740833282472
1746608958.6479313,-1.2420570850372314,-6.556682109832763,7.174730300903321
1746608958.66107,-1.2804083824157715,-6.634058475494384,7.201054096221925
1746608958.678968,-1.2666089534759521,-6.5767855644226065,7.151506423950196
1746608958.6937208,-1.256497859954834,-6.548841953277587,7.129962921142579
1746608958.7133996,-1.3061139583587646,-6.651652336120605,7.236870288848878
1746608958.729487,-1.2386853694915771,-6.5470919609069815,7.1723294258117685
1746608958.7486632,-1.2689915895462036,-6.562223434448241,7.149689197540284
1746608958.7641838,-1.246936559677124,-6.596580505371093,7.160712242126466
1746608958.77736,-1.2541221380233765,-6.585021495819091,7.175090789794923
1746608958.7929094,-1.2390873432159424,-6.56278371810913,7.1704654693603525
1746608958.8064747,-1.261177897453308,-6.615092754364013,7.141399383544923
1746608958.8192823,-1.231318712234497,-6.572112560272216,7.192380905151368
1746608958.8325067,-1.2498245239257812,-6.575921058654784,7.173436164855958
1746608958.8466372,-1.267824649810791,-6.583250045776366,7.164955615997315
1746608958.8602583,-1.2611351013183594,-6.59118366241455,7.176839828491212
1746608958.874744,-1.1650371551513672,-6.357661247253417,7.215744018554688
1746608958.8905509,-1.192031979560852,-6.6782188415527335,7.148249149322511
1746608958.9060392,-1.243977665901184,-6.469527721405028,7.11039161682129
1746608958.9211078,-1.2721401453018188,-6.588213920593261,7.19510316848755
1746608958.9354877,-1.2550101280212402,-6.570050716400146,7.144291400909425
1746608958.9493563,-1.2594910860061646,-6.5997533798217765,7.171053886413575
1746608958.964652,-1.2755682468414307,-6.5931334495544425,7.153140544891358
1746608958.9806004,-1.291034460067749,-6.531874656677245,7.187788009643556
1746608958.9989173,-1.2537752389907837,-6.555957794189452,7.159541130065919
1746608959.013825,-1.270580530166626,-6.586360454559325,7.1813602447509775
1746608959.031016,-1.2632771730422974,-6.572546482086181,7.1511807441711435
1746608959.0469587,-1.2458670139312744,-6.566971778869628,7.167498588562013
1746608959.067177,-1.2462459802627563,-6.561339855194091,7.170954704284669
1746608959.0801318,-1.253019094467163,-6.5603013038635245,7.154363155364991
1746608959.0939262,-1.255397915840149,-6.579594135284423,7.171000957489015
1746608959.107048,-1.2523150444030762,-6.563680171966552,7.169613838195802
1746608959.1212218,-1.265350341796875,-6.583263874053954,7.16305160522461
1746608959.1345296,-1.2487114667892456,-6.552892208099364,7.141657829284669
1746608959.147797,-1.2422559261322021,-6.563045024871825,7.179773807525636
1746608959.1615329,-1.261751413345337,-6.580037117004394,7.163052558898927
1746608959.17615,-1.2535537481307983,-6.5621018409728995,7.159911632537843
1746608959.1899903,-1.2626694440841675,-6.583172798156737,7.174641609191895
1746608959.2035115,-1.2593138217926025,-6.565025329589843,7.15963363647461
1746608959.2167919,-1.2565250396728516,-6.560973644256591,7.1816701889038095
1746608959.2302332,-1.249013900756836,-6.557432174682616,7.145761966705323
1746608959.243353,-1.2533750534057617,-6.570984363555907,7.167952537536622
1746608959.2570305,-1.255152702331543,-6.5801048278808585,7.165551662445069
1746608959.2701225,-1.2472573518753052,-6.567463874816894,7.166951656341554
1746608959.283206,-1.258147120475769,-6.567436695098876,7.146449089050294
1746608959.2959943,-1.2474511861801147,-6.571152210235595,7.1577186584472665
1746608959.306584,-1.2512654066085815,-6.577064514160155,7.153488159179688
1746608959.3169084,-1.2450238466262817,-6.575578689575194,7.156048774719239
1746608959.3241591,-1.2428370714187622,-6.57633876800537,7.160687923431397
1746608959.4296706,-1.2536983489990234,-6.573704719543456,7.15829086303711
1746608959.5300868,-1.260036587715149,-6.574497699737548,7.15446949005127
1746608959.602209,-1.2557892799377441,-6.5876755714416495,7.175251960754395
1746608959.6983929,-1.256915807723999,-6.560566902160644,7.168522834777833
1746608959.794099,-1.273484230041504,-6.566187858581542,7.16740894317627
1746608959.897553,-1.2588874101638794,-6.566019535064696,7.170753955841065
1746608959.9865305,-1.247194528579712,-6.571101665496825,7.155941963195802
1746608960.0823627,-1.2386654615402222,-6.579138755798339,7.17019271850586
1746608960.1785626,-1.2441848516464233,-6.559447288513183,7.173462390899659
1746608960.2800722,-1.2474571466445923,-6.57006025314331,7.1611671447753915
1746608960.3812616,-1.2552845478057861,-6.572986125946044,7.162159442901612
1746608960.4907649,-1.2768279314041138,-6.570193290710448,7.16537094116211
1746608960.563171,-1.286744475364685,-6.576878070831298,7.140033721923829
1746608960.6651587,-1.256696105003357,-6.585252285003661,7.160000801086427
1746608960.7637424,-1.2502717971801758,-6.5523314476013175,7.171525955200196
1746608960.8540733,-1.109105110168457,-6.0973777770996085,7.064105987548829
1746608960.96987,-1.2716381549835205,-6.702706336975097,7.1591534614563
1746608961.0416434,-1.2473760843276978,-6.547804832458495,7.137513160705567
1746608961.1384747,-1.2407946586608887,-6.510179042816161,7.156383991241456
1746608961.2355385,-1.2408355474472046,-6.57044219970703,7.178394794464112
1746608961.3315833,-1.2499854564666748,-6.5260629653930655,7.172949790954591
1746608961.4519913,-1.2717835903167725,-6.567911624908446,7.17174243927002
1746608961.524474,-1.288162112236023,-6.587768554687499,7.17117738723755
1746608961.6278691,-1.2758781909942627,-6.57404613494873,7.163654804229737
1746608961.7162254,-1.2778871059417725,-6.585526943206786,7.160624504089356
1746608961.817117,-1.265716791152954,-6.566034317016601,7.16769027709961
1746608961.9088218,-1.264183521270752,-6.574449539184569,7.152010917663575
1746608962.0052524,-1.2616682052612305,-6.5668954849243155,7.168015956878663
1746608962.1003067,-1.2523239850997925,-6.559553146362304,7.165637969970704
1746608962.1971626,-1.2511974573135376,-6.563718318939208,7.159780502319337
1746608962.2920814,-1.246701717376709,-6.555280685424804,7.1622962951660165
1746608962.4124217,-1.256565809249878,-6.572283267974853,7.1498379707336435
1746608962.4841454,-1.246096134185791,-6.571074485778808,7.1678204536438
1746608962.5859444,-1.2517727613449097,-6.569450378417968,7.154783725738526
1746608962.6758556,-1.2415688037872314,-6.567654132843017,7.16001844406128
1746608962.7804399,-1.2483731508255005,-6.568799018859862,7.155006885528565
1746608962.8690255,-1.2497634887695312,-6.570574760437011,7.161802291870118
1746608962.9649563,-1.24338698387146,-6.561340332031249,7.145165443420411
1746608963.061899,-1.2485309839248657,-6.58643627166748,7.161942958831788
1746608963.1651404,-1.246114730834961,-6.588521480560302,7.156151771545411
1746608963.2564778,-1.2543271780014038,-6.586410045623778,7.156639575958253
1746608963.3630524,-1.2476173639297485,-6.400073528289794,7.0716214179992685
1746608963.4455724,-1.2567386627197266,-6.720502853393554,7.148998737335206
1746608963.5409074,-1.2490161657333374,-6.590664386749267,7.187469482421876
1746608963.6493094,-1.2656729221343994,-6.613778114318847,7.159673690795899
1746608963.7331934,-1.3144176006317139,-6.658284664154052,7.231863975524903
1746608963.853667,-1.2773350477218628,-6.615307807922362,7.172795295715333
1746608963.931407,-1.2465317249298096,-6.568622589111327,7.158980369567872
1746608964.0220003,-1.2394977807998657,-6.553541183471679,7.15273141860962
1746608964.1186469,-1.2464449405670166,-6.5681066513061515,7.1513991355896005
1746608964.2147737,-1.252683401107788,-6.566091060638427,7.175663948059083
1746608964.332413,-1.253586769104004,-6.574833393096923,7.152205467224122
1746608964.404267,-1.2421544790267944,-6.558630943298339,7.166819572448731
1746608964.501077,-1.2723126411437988,-6.577174186706542,7.142907142639161
1746608964.5975494,-1.2627884149551392,-6.568994522094726,7.1741065979003915
1746608964.7013514,-1.2645745277404785,-6.581437587738036,7.175435543060304
1746608964.815057,-1.1555519104003906,-6.32132339477539,7.161354541778565
1746608964.8933449,-1.2112281322479248,-6.566182613372802,7.10547161102295
1746608964.984648,-1.2217029333114624,-6.477125644683837,7.18697214126587
1746608965.0792906,-1.3384418487548828,-6.744775772094726,7.215379714965821
1746608965.1768386,-1.2279376983642578,-6.536933422088622,7.150079250335694
1746608965.2725334,-1.2648078203201294,-6.62801694869995,7.184287548065186
1746608965.3670728,-1.2656723260879517,-6.579401016235351,7.124489307403565
1746608965.4640918,-1.2821683883666992,-6.583502769470214,7.15380620956421
1746608965.559277,-1.2781263589859009,-6.56078290939331,7.1716275215148935
1746608965.6553907,-1.2596144676208496,-6.592239379882812,7.1673598289489755
1746608965.7510974,-1.240986704826355,-6.584495067596435,7.163485050201417
1746608965.8477156,-1.247335433959961,-6.559346675872802,7.1521339416503915
1746608965.9431777,-1.2416775226593018,-6.557988166809081,7.169901371002198
1746608966.0396273,-1.2641310691833496,-6.580615997314452,7.166093349456788
1746608966.1351385,-1.2569732666015625,-6.519239902496337,7.165966987609864
1746608966.2556093,-1.2558180093765259,-6.557578563690185,7.168279647827149
1746608966.3283737,-1.2560875415802002,-6.578606605529784,7.165305614471436
1746608966.4242504,-1.2587978839874268,-6.589870929718017,7.155146598815919
1746608966.5205503,-1.2561099529266357,-6.590785026550292,7.172579288482667
1746608966.6219385,-1.254859209060669,-6.577396392822265,7.143162727355958
1746608966.7133098,-1.2522468566894531,-6.577630996704101,7.162877082824708
1746608966.808899,-1.2473855018615723,-6.555562019348144,7.173899173736573
1746608966.9050298,-1.2490079402923584,-6.556499481201171,7.157952308654786
1746608967.0021656,-1.2637050151824951,-6.566747188568114,7.175544738769532
1746608967.1011577,-1.2670460939407349,-6.559032440185546,7.177856922149659
1746608967.2177787,-1.2565360069274902,-6.576271057128905,7.153142452239991
1746608967.2908647,-1.2433255910873413,-6.573455810546874,7.173640727996827
1746608967.386115,-1.2431591749191284,-6.57341718673706,7.162896633148194
1746608967.482748,-1.2558567523956299,-6.553695678710937,7.160515308380128
1746608967.5852933,-1.2539311647415161,-6.577876091003417,7.1688785552978525
1746608967.6746867,-1.2585185766220093,-6.564002513885497,7.1510968208313
1746608967.7710214,-1.2642713785171509,-6.593664646148681,7.162780284881593
1746608967.8668227,-1.2546671628952026,-6.579347610473632,7.162128925323487
1746608967.9629228,-1.2502925395965576,-6.519980907440185,7.177119255065919
1746608968.0591269,-1.2679541110992432,-6.553988456726073,7.167069911956788
1746608968.1722703,-1.2442781925201416,-6.526371479034423,7.1726322174072275
1746608968.2507787,-1.2617950439453125,-6.586027145385741,7.183459758758546
1746608968.3460145,-1.264005422592163,-6.565623760223388,7.168724060058595
1746608968.4426758,-1.263501524925232,-6.589594841003417,7.1630897521972665
1746608968.541247,-1.2552974224090576,-6.56983470916748,7.172285079956056
1746608968.637038,-1.2625024318695068,-6.5855956077575675,7.1752052307128915
1746608968.732836,-1.2589914798736572,-6.56471824645996,7.174043655395509
1746608968.8261223,-1.2457472085952759,-6.582295894622802,7.1601300239563
1746608968.9252896,-1.2545286417007446,-6.569072246551513,7.177220821380616
1746608969.0204785,-1.25644850730896,-6.549420356750487,7.16441297531128
1746608969.1168158,-1.2571523189544678,-6.574035167694091,7.168925762176515
1746608969.2131083,-1.2573144435882568,-6.559587478637694,7.16652536392212
1746608969.3088472,-1.2534443140029907,-6.560927391052245,7.168212413787843
1746608969.4060605,-1.2425479888916016,-6.528615474700927,7.236543655395509
1746608969.5068119,-1.2627753019332886,-6.586540699005126,7.158760070800782
1746608969.621936,-1.2675789594650269,-6.578137397766112,7.161270141601563
1746608969.6933846,-1.2834839820861816,-6.585939407348632,7.153567790985108
1746608969.7910028,-1.2586448192596436,-6.580003738403319,7.163230895996095
1746608969.8870225,-1.2501513957977295,-6.555848598480224,7.167502403259278
1746608969.9824696,-1.2496862411499023,-6.556893348693847,7.163005828857423
1746608970.0804114,-1.2236729860305786,-6.541307926177978,7.163670539855958
1746608970.1747627,-1.24058198928833,-6.500605583190917,7.142537593841554
1746608970.2760081,-1.2137876749038696,-6.482990264892577,7.215456485748292
1746608970.3669062,-1.2326046228408813,-6.542072296142577,7.178614139556886
1746608970.4691665,-1.2500914335250854,-6.571115493774413,7.149274349212647
1746608970.585676,-1.2725194692611694,-6.610461711883544,7.151092529296876
1746608970.6532621,-1.2814905643463135,-6.568598270416259,7.181566238403321
1746608970.753118,-1.2675144672393799,-6.557400226593017,7.150573730468751
1746608970.8484411,-1.2619030475616455,-6.599945545196532,7.174906730651856
1746608970.9437683,-1.2399234771728516,-6.568189620971679,7.153935432434083
1746608971.0381968,-1.2298862934112549,-6.545456409454345,7.1515750885009775
1746608971.1361678,-1.2590082883834839,-6.551548480987548,7.174908161163331
1746608971.232957,-1.248084545135498,-6.530616760253905,7.191367149353028
1746608971.3401198,-1.2557542324066162,-6.540999889373778,7.18230438232422
1746608971.4291577,-1.2216150760650635,-6.5802316665649405,7.192910671234132
1746608971.5212111,-1.2373801469802856,-6.542123794555663,7.142908573150636
1746608971.6168382,-1.2842134237289429,-6.6480441093444815,7.163984298706056
1746608971.7131684,-1.3084239959716797,-6.608532905578612,7.24586057662964
1746608971.8085063,-1.2510757446289062,-6.550216674804687,7.1888208389282235
1746608971.912777,-1.2360548973083496,-6.5883235931396475,7.1242690086364755
1746608972.0259657,-1.3137662410736084,-6.640378952026366,7.194387435913087
1746608972.0984528,-1.2465916872024536,-6.640630245208739,7.19963836669922
1746608972.1941283,-1.2707887887954712,-6.585557937622069,7.070935249328614
1746608972.2898748,-1.2242764234542847,-6.526700496673583,7.149682044982911
1746608972.3912363,-1.248429536819458,-6.5786800384521475,7.180851459503175
1746608972.482756,-1.2360392808914185,-6.567118644714355,7.158714771270753
1746608972.5763931,-1.1866419315338135,-6.433586120605468,7.3721399307250985
1746608972.6763597,-1.3238204717636108,-6.670669078826903,7.050058841705323
1746608972.76877,-1.2819191217422485,-6.585494995117187,7.16137981414795
1746608972.8688793,-1.2641501426696777,-6.590508460998534,7.1581716537475595
1746608972.970309,-1.2466791868209839,-6.582976818084716,7.1821351051330575
1746608973.0594554,-1.2458301782608032,-6.543854236602782,7.165420532226563
1746608973.1571047,-1.2580482959747314,-6.572319507598876,7.180629253387452
1746608973.257195,-1.2562273740768433,-6.570387363433837,7.166946411132813
1746608973.34757,-1.2526692152023315,-6.56685972213745,7.144469738006593
1746608973.4661999,-1.2364583015441895,-6.587024211883544,7.1652612686157235
1746608973.538901,-1.2530028820037842,-6.612079143524169,7.188586235046388
1746608973.6342628,-1.2434419393539429,-6.563786983489989,7.158279895782472
1746608973.7297473,-1.2628254890441895,-6.586754322052001,7.16842269897461
1746608973.8258486,-1.252077579498291,-6.580777168273925,7.182584762573243
1746608973.9290357,-1.2474359273910522,-6.56226348876953,7.149470806121827
1746608974.0180545,-1.2570949792861938,-6.569809436798095,7.170295715332032
1746608974.114466,-1.2451196908950806,-6.567627429962157,7.169318675994874
1746608974.2137449,-1.257655382156372,-6.563189029693603,7.1508851051330575
1746608974.320126,-1.239439845085144,-6.557663440704345,7.177380084991456
1746608974.403586,-1.2578922510147095,-6.577210903167724,7.1705288887023935
1746608974.5012903,-1.2531421184539795,-6.562162399291991,7.170340061187745
1746608974.5981436,-1.2685332298278809,-6.597081661224364,7.151897907257081
1746608974.6934938,-1.2545615434646606,-6.578588962554931,7.170455932617188
1746608974.792513,-1.2525274753570557,-6.573101520538329,7.151504516601563
1746608974.8869238,-1.245036244392395,-6.576505184173583,7.16252088546753
1746608974.9819338,-1.2524679899215698,-6.560407638549804,7.151808261871339
1746608975.0832987,-1.2189643383026123,-6.534257888793944,7.16592836380005
1746608975.1763122,-1.2575709819793701,-6.573490619659423,7.168695926666261
1746608975.283378,-1.2492265701293945,-6.567471981048583,7.160361766815186
1746608975.3676047,-1.2596606016159058,-6.582713603973388,7.154118061065675
1746608975.4633496,-1.254168152809143,-6.571502208709716,7.155080318450929
1746608975.5590978,-1.2524014711380005,-6.5823044776916495,7.162445545196534
1746608975.6553438,-1.2497037649154663,-6.56543731689453,7.165295600891114
1746608975.7515233,-1.2689707279205322,-6.558595180511474,7.180396080017091
1746608975.8475344,-1.243503212928772,-6.2306127548217765,7.101944446563722
1746608975.9434266,-1.2121859788894653,-6.432781696319579,7.0963687896728525
1746608976.0395787,-1.2042620182037354,-6.5800790786743155,7.154310703277589
1746608976.135361,-1.2365145683288574,-6.543153285980224,7.128587245941163
1746608976.23158,-1.2552818059921265,-6.599999427795409,7.1720852851867685
1746608976.353366,-1.3707770109176636,-6.9255051612853995,7.342745780944825
1746608976.4220736,-1.2743440866470337,-6.538625717163085,7.112967967987061
1746608976.5211446,-1.2655682563781738,-6.320965766906737,7.152483463287354
1746608976.616629,-1.282749056816101,-6.669672012329101,7.276685714721681
1746608976.712801,-1.2345563173294067,-6.514349937438964,7.134664058685304
1746608976.8094106,-1.2605782747268677,-6.59059190750122,7.173900604248048
1746608976.9082034,-1.2495522499084473,-6.5845065116882315,7.187669277191163
1746608976.9988055,-1.270948052406311,-6.578609943389892,7.1607751846313485
1746608977.0947082,-1.280266284942627,-6.571404457092284,7.172912120819093
1746608977.198796,-1.2565737962722778,-6.582184314727782,7.188325881958009
1746608977.312046,-1.2519268989562988,-6.565680027008056,7.16268014907837
1746608977.38317,-1.260786771774292,-6.589559078216552,7.177354812622071
1746608977.4839847,-1.2423392534255981,-6.541464328765868,7.180837631225587
1746608977.5752447,-1.2422149181365967,-6.5362205505371085,7.175040245056153
1746608977.6748137,-1.2309435606002808,-6.5427513122558585,7.175333976745606
1746608977.7700148,-1.2418246269226074,-6.551331043243407,7.168553352355958
1746608977.8668125,-1.267271637916565,-6.569138050079345,7.16557788848877
1746608977.965323,-1.242663025856018,-6.56673765182495,7.158357620239259
1746608978.0594935,-1.264386773109436,-6.587099075317382,7.183697700500489
1746608978.1548347,-1.2594314813613892,-6.574575424194335,7.16005039215088
1746608978.2728283,-1.2542619705200195,-6.56616449356079,7.1689090728759775
1746608978.344711,-1.2364050149917603,-6.558793067932128,7.157024860382081
1746608978.4408252,-1.2355880737304688,-6.556272029876708,7.160844326019288
1746608978.536902,-1.2431399822235107,-6.570411682128905,7.169272899627686
1746608978.632692,-1.2476438283920288,-6.564156532287597,7.158501625061036
1746608978.7350757,-1.1796364784240723,-6.534162998199462,7.139338493347169
1746608978.8275237,-1.264438271522522,-6.583532810211181,7.220677375793458
1746608978.9240267,-1.2136750221252441,-6.491622924804687,7.159318923950196
1746608979.0195289,-1.2824163436889648,-6.550039291381835,7.149266719818116
1746608979.1230824,-1.3506417274475098,-6.810945987701415,7.15554428100586
1746608979.211969,-1.2632408142089844,-6.64995527267456,7.167650699615479
1746608979.3075519,-1.2625349760055542,-6.578412532806396,7.154935359954835
1746608979.401817,-1.2405411005020142,-6.5188655853271475,7.183175563812257
1746608979.497768,-1.2395365238189697,-6.535782814025878,7.199115276336671
1746608979.596644,-1.2440900802612305,-6.5390586853027335,7.167875766754151
1746608979.696835,-1.3170881271362305,-6.836877822875976,6.992745876312257
1746608979.7863164,-1.2531955242156982,-6.670636177062987,7.157941341400147
1746608979.8841887,-1.2545762062072754,-6.535961627960204,7.158161640167237
1746608979.9817839,-1.2420841455459595,-6.574071407318114,7.1621060371398935
1746608980.0778983,-1.444413423538208,-6.378880500793456,7.274357318878175
1746608980.1844518,-1.2967764139175415,-6.79365062713623,7.198322772979737
1746608980.2690294,-1.2317891120910645,-6.533852577209472,7.137333869934083
1746608980.3784912,-1.260237216949463,-6.573373317718505,7.181872844696046
1746608980.4595623,-1.2341868877410889,-6.55053949356079,7.168974399566651
1746608980.5554674,-1.2344223260879517,-6.566179275512694,7.179954051971436
1746608980.675709,-1.2413263320922852,-6.558709144592284,7.163348197937013
1746608980.7474349,-1.239112377166748,-6.5645055770874015,7.164006710052491
1746608980.843213,-1.242401361465454,-6.5567002296447745,7.1708722114563
1746608980.9390612,-1.2609971761703491,-6.5766563415527335,7.162791252136231
1746608981.0441575,-1.2542024850845337,-6.559701919555663,7.166597843170167
1746608981.1630273,-1.2559980154037476,-6.570500373840331,7.163807392120362
1746608981.2288926,-1.24996018409729,-6.566110134124755,7.1827759742736825
1746608981.3248775,-1.2509623765945435,-6.56696319580078,7.1582422256469735
1746608981.420448,-1.2468078136444092,-6.580967426300048,7.165830612182618
1746608981.5187635,-1.2434443235397339,-6.576210498809814,7.1639113426208505
1746608981.6463675,-1.2474827766418457,-6.564157485961913,7.170995712280274
1746608981.708874,-1.2514095306396484,-6.583430290222167,7.169998645782472
1746608981.8047855,-1.24164879322052,-6.566819190979003,7.160692691802979
1746608981.904754,-1.3134698867797852,-6.632531166076659,7.218879699707032
1746608982.010594,-1.223292589187622,-6.491764545440673,7.143649578094483
1746608982.1173456,-1.2601679563522339,-6.5401854515075675,7.184077262878419
1746608982.1903589,-1.2473341226577759,-6.576543331146239,7.1467065811157235
1746608982.2902246,-1.2415028810501099,-6.588803768157958,7.17313575744629
1746608982.3817751,-1.2364153861999512,-6.560522556304931,7.169241428375245
1746608982.4815383,-1.2330670356750488,-6.557058334350585,7.1681275367736825
1746608982.5993867,-1.2541110515594482,-6.553263187408446,7.172650337219239
1746608982.6729121,-1.2611544132232666,-6.550810813903808,7.157353401184083
1746608982.7721896,-1.2616137266159058,-6.565546512603759,7.167675495147706
1746608982.8643525,-1.2576375007629395,-6.571860790252685,7.169403076171876
1746608982.9638808,-1.2483538389205933,-6.569071769714355,7.164356231689454
1746608983.0583682,-1.2507327795028687,-6.575050354003905,7.1592373847961435
1746608983.1527517,-1.250343680381775,-6.560038566589355,7.176194190979005
1746608983.2479792,-1.2589057683944702,-6.564781188964843,7.162309646606446
1746608983.342355,-1.2595292329788208,-6.5617589950561515,7.1615872383117685
1746608983.4409308,-1.2627170085906982,-6.5656099319458,7.171300888061524
1746608983.5475316,-1.2457331418991089,-6.553997993469237,7.172077178955079
1746608983.6340153,-1.2358547449111938,-6.567692756652831,7.153843879699708
1746608983.7288916,-1.2469298839569092,-6.55953025817871,7.170962810516358
1746608983.8239822,-1.2451398372650146,-6.562562942504882,7.168090820312501
1746608983.9310842,-1.2516934871673584,-6.571770191192626,7.1580824851989755
1746608984.0408359,-1.2519601583480835,-6.564894199371337,7.162428855895997
1746608984.1139746,-1.2395328283309937,-6.572518825531005,7.165399074554444
1746608984.2092943,-1.2381972074508667,-6.564301013946532,7.160729885101319
1746608984.3053706,-1.2433971166610718,-6.562572002410888,7.167788028717042
1746608984.4006515,-1.2436884641647339,-6.563161849975585,7.164981365203858
1746608984.5217946,-1.2483264207839966,-6.562878131866454,7.156368255615235
1746608984.5935776,-1.2593673467636108,-6.562118053436278,7.172306537628175
1746608984.6943414,-1.252026081085205,-6.574500560760497,7.1789493560791025
1746608984.797289,-1.2548954486846924,-6.573572635650634,7.167865753173829
1746608984.889924,-1.2499433755874634,-6.565265178680419,7.164860248565675
1746608985.0027776,-1.2470083236694336,-6.5667357444763175,7.169666290283204
1746608985.0731509,-1.2506567239761353,-6.574950218200683,7.169016838073731
1746608985.171196,-1.2233232259750366,-6.555262088775634,7.163596630096436
1746608985.2706757,-1.2318732738494873,-6.5694842338562,7.170076847076417
1746608985.3608553,-1.2370041608810425,-6.57000970840454,7.164086341857911
1746608985.4823642,-1.248625636100769,-6.5877904891967765,7.16144609451294
1746608985.5543377,-1.2528876066207886,-6.566344738006591,7.169909000396729
1746608985.649908,-1.256760597229004,-6.569000244140624,7.158236026763917
1746608985.7457848,-1.2503968477249146,-6.552343845367431,7.17475461959839
1746608985.844549,-1.2610236406326294,-6.536588668823241,7.143754482269288
1746608985.9630582,-1.2527687549591064,-6.615691661834716,7.163870811462403
1746608986.0334764,-1.2266294956207275,-6.504540443420409,7.1703834533691415
1746608986.132037,-1.24368155002594,-6.592558860778808,7.200284004211427
1746608986.2260826,-1.232316493988037,-6.588841915130614,7.12262773513794
1746608986.3241367,-1.2514830827713013,-6.640512943267821,7.177409172058106
1746608986.44236,-1.2157922983169556,-6.605599403381347,7.155336856842042
1746608986.514035,-1.2257716655731201,-6.508197784423827,7.178112506866456
1746608986.6110973,-1.2766554355621338,-6.431363105773925,7.120081901550294
1746608986.7078254,-1.2598587274551392,-6.568126678466796,7.178532123565675
1746608986.8118744,-1.2552127838134766,-6.546554088592528,7.16121006011963
1746608986.9239218,-1.245560646057129,-6.563608646392821,7.168799877166749
1746608986.996947,-1.2497761249542236,-6.575465202331542,7.170448303222657
1746608987.0918572,-1.2395517826080322,-6.576280117034911,7.159139156341554
1746608987.1870067,-1.2448850870132446,-6.565638542175292,7.157854080200196
1746608987.2910998,-1.321230411529541,-6.564533233642577,7.281082153320313
1746608987.4048264,-1.271200180053711,-6.709169387817382,7.1844120025634775
1746608987.4767716,-1.20853853225708,-6.528639793395995,7.155597209930421
1746608987.5736945,-1.3177741765975952,-6.65991973876953,7.338355541229249
1746608987.6739726,-1.320217490196228,-6.434491157531737,7.063311100006104
1746608987.773463,-1.3100298643112183,-6.638131618499755,7.189852237701417
1746608987.8846178,-1.2343339920043945,-6.529640197753905,7.209834098815919
1746608987.9569526,-1.226253628730774,-6.544622898101806,7.172278404235841
1746608988.052621,-1.247963786125183,-6.5607213973999015,7.16156816482544
1746608988.1485777,-1.258502721786499,-6.596207618713378,7.164301872253419
1746608988.2447116,-1.2270143032073975,-6.5361595153808585,7.137455463409425
1746608988.3647346,-1.2620078325271606,-6.587353706359862,7.19437074661255
1746608988.4367123,-1.2430188655853271,-6.57032299041748,7.163709163665772
1746608988.5333617,-1.2575358152389526,-6.578124523162841,7.143861770629884
1746608988.629554,-1.2381542921066284,-6.5570993423461905,7.176238536834718
1746608988.733493,-1.2460229396820068,-6.5504412651062,7.174710750579835
1746608988.846085,-1.250781536102295,-6.5631723403930655,7.15517807006836
1746608988.9173787,-1.2543069124221802,-6.57695436477661,7.1819753646850595
1746608989.0140233,-1.261235237121582,-6.578104972839355,7.149033546447755
1746608989.11079,-1.2597575187683105,-6.560537815093993,7.172913551330567
1746608989.2067304,-1.242450475692749,-6.5654330253601065,7.171409130096436
1746608989.3275995,-1.2448433637619019,-6.569555759429931,7.178006649017335
1746608989.3989224,-1.2557891607284546,-6.561277389526366,7.1637587547302255
1746608989.4947047,-1.113571286201477,-5.915663242340087,7.343475341796876
1746608989.5905476,-1.2478108406066895,-6.492228031158446,7.171082019805909
1746608989.6943533,-1.259303331375122,-6.386238574981689,7.16123390197754
1746608989.8107169,-1.282357931137085,-6.6429147720336905,7.18642282485962
1746608989.8787568,-1.2398239374160767,-6.558187007904052,7.168257713317872
1746608989.9752226,-1.2608637809753418,-6.543601989746093,7.1448073387146005
1746608990.0707347,-1.2690292596817017,-6.595628261566161,7.191295623779298
1746608990.1757395,-1.2525687217712402,-6.578379154205321,7.189433097839356
1746608990.287295,-1.271506905555725,-6.567945480346679,7.142876148223878
1746608990.3599796,-1.256805419921875,-6.572426795959472,7.166842937469483
1746608990.4557483,-1.2407511472702026,-6.579396247863769,7.155108451843263
1746608990.5518267,-1.22857666015625,-6.549932003021239,7.149883270263673
1746608990.6508508,-1.2339106798171997,-6.553424835205077,7.16658115386963
1746608990.7689745,-1.244230031967163,-6.565833091735839,7.1534204483032235
1746608990.8389356,-1.2468972206115723,-6.58800172805786,7.170471191406251
1746608990.9367566,-1.2403770685195923,-6.558584690093993,7.156572341918946
1746608991.0316694,-1.250194787979126,-6.5866122245788565,7.1593360900878915
1746608991.131284,-1.241355061531067,-6.570467472076415,7.172351837158204
1746608991.2491682,-1.2500869035720825,-6.577939510345458,7.1707167625427255
1746608991.321145,-1.2457278966903687,-6.553066730499267,7.170420646667481
1746608991.41701,-1.2411717176437378,-6.552657604217528,7.168241500854493
1746608991.512994,-1.248350977897644,-6.56551170349121,7.162058353424073
1746608991.6171598,-1.24888277053833,-6.558880329132079,7.176225662231446
1746608991.7304876,-1.259887456893921,-6.569563388824462,7.168833255767823
1746608991.801807,-1.2430646419525146,-6.554372787475585,7.163644313812257
1746608991.8971455,-1.2561399936676025,-6.565396308898925,7.165720939636231
1746608991.9929328,-1.2420132160186768,-6.561615467071532,7.162126541137696
1746608992.0946615,-1.2553763389587402,-6.571845054626464,7.1680641174316415
1746608992.2099261,-1.2495241165161133,-6.56136131286621,7.183737754821778
1746608992.2814686,-1.2508704662322998,-6.558041095733642,7.16510820388794
1746608992.377279,-1.2520129680633545,-6.578935146331786,7.169525623321534
1746608992.4730904,-1.2449393272399902,-6.570838928222655,7.167221069335938
1746608992.5773225,-1.2386181354522705,-6.553398609161376,7.1643643379211435
1746608992.7041247,-1.2563294172286987,-6.56456422805786,7.163060188293458
1746608992.7617474,-1.2491180896759033,-6.548008441925048,7.173529624938966
1746608992.857698,-1.2603663206100464,-6.562680721282958,7.17253065109253
1746608992.9547834,-1.252386212348938,-6.5532808303833,7.1646466255188
1746608993.050518,-1.2702629566192627,-6.631915092468261,7.11431121826172
1746608993.1709557,-1.2727916240692139,-6.486984729766845,7.191124439239503
1746608993.2431045,-1.2060049772262573,-6.432891368865966,7.098430633544923
1746608993.3393233,-1.2154654264450073,-6.51095151901245,7.190266609191895
1746608993.4356632,-1.2377769947052002,-6.5532822608947745,7.161961555480958
1746608993.536489,-1.2463167905807495,-6.565044403076171,7.1559438705444345
1746608993.6517293,-1.2180079221725464,-6.56252098083496,7.1697635650634775
1746608993.7236638,-1.2462304830551147,-6.56024932861328,7.174336910247804
1746608993.8195288,-1.2640552520751953,-6.573525428771972,7.165427207946778
1746608993.9156108,-1.2563602924346924,-6.56889772415161,7.173671245574952
1746608994.0121953,-1.2580589056015015,-6.556805133819579,7.179077148437501
1746608994.1318612,-1.2454956769943237,-6.544647693634032,7.166789054870606
1746608994.2042627,-1.219254493713379,-6.54786729812622,7.175910949707032
1746608994.3013666,-1.2473312616348267,-6.572662830352782,7.188491821289063
1746608994.3958063,-1.2458775043487549,-6.556236743927001,7.150042533874513
1746608994.5001945,-1.2513316869735718,-6.562469482421874,7.192994117736817
1746608994.6127152,-1.2558844089508057,-6.578930377960204,7.165173053741456
1746608994.6852536,-1.2454681396484375,-6.568707942962646,7.156787872314454
1746608994.789108,-1.247626781463623,-6.572019100189208,7.178001403808595
1746608994.8756554,-1.2523889541625977,-6.5780367851257315,7.170153141021729
1746608994.9746559,-1.2582361698150635,-6.57069444656372,7.175011157989503
1746608995.0921776,-1.2423584461212158,-6.5444908142089835,7.173502445220948
1746608995.1702046,-1.2492430210113525,-6.574188709259032,7.172621250152589
1746608995.2610924,-1.2457475662231445,-6.562906742095946,7.15422534942627
1746608995.3563771,-1.252594232559204,-6.570586681365966,7.173213481903077
1746608995.4565797,-1.241382360458374,-6.543339729309081,7.16412115097046
1746608995.5502868,-1.2427034378051758,-6.550392627716064,7.166960239410401
1746608995.6456823,-1.2464377880096436,-6.569450855255126,7.181383609771729
1746608995.7412148,-1.2541362047195435,-6.558103561401366,7.17253589630127
1746608995.8378344,-1.2488781213760376,-6.5816025733947745,7.17322063446045
1746608995.9358306,-1.238637924194336,-6.559471607208251,7.180455207824708
1746608996.0565665,-1.246660828590393,-6.561577796936034,7.161895275115968
1746608996.125966,-1.2399028539657593,-6.572871685028075,7.16629457473755
1746608996.2223172,-1.234025478363037,-6.5737876892089835,7.1793179512023935
1746608996.3186176,-1.2545714378356934,-6.576397418975829,7.170454502105714
1746608996.4217215,-1.248387098312378,-6.552182674407958,7.172618865966798
1746608996.534458,-1.2473351955413818,-6.562538623809814,7.171445846557618
1746608996.605497,-1.256277084350586,-6.5690927505493155,7.174209594726563
1746608996.7049923,-1.2483799457550049,-6.569581985473632,7.171285629272462
1746608996.798967,-1.248091220855713,-6.562431812286376,7.1780972480773935
1746608996.894732,-1.2425291538238525,-6.562150955200194,7.165532112121583
1746608997.0157766,-1.2457025051116943,-6.559014320373534,7.171046733856202
1746608997.088827,-1.2411423921585083,-6.5668697357177725,7.157212257385255
1746608997.1827493,-1.2445913553237915,-6.575092315673827,7.167439460754395
1746608997.2787757,-1.2511407136917114,-6.629314422607421,7.157227039337159
1746608997.38433,-1.2337486743927002,-6.556607723236083,7.169341564178468
1746608997.4981713,-1.2566838264465332,-6.588191032409667,7.13859510421753
1746608997.572792,-1.2465358972549438,-6.551562309265136,7.1841068267822275
1746608997.6643288,-1.2527791261672974,-6.569442272186278,7.179129600524903
1746608997.7607045,-1.258049488067627,-6.534955024719237,7.169625759124757
1746608997.8564634,-1.2327603101730347,-6.548187255859374,7.1802663803100595
1746608997.9770572,-1.2421880960464478,-6.5548129081726065,7.168946266174317
1746608998.0481575,-1.2368334531784058,-6.560503005981444,7.163475513458253
1746608998.1458094,-1.2480944395065308,-6.573451042175292,7.171440601348878
1746608998.2411058,-1.2657725811004639,-6.5604510307312,7.152390480041505
1746608998.3411634,-1.248418927192688,-6.558556079864501,7.171595573425294
1746608998.4333246,-1.2522244453430176,-6.562090873718261,7.165571689605714
1746608998.5297492,-1.2396608591079712,-6.563006401062011,7.18175220489502
1746608998.625248,-1.2462446689605713,-6.560623168945312,7.1592421531677255
1746608998.7212496,-1.2501775026321411,-6.558349132537841,7.166243076324464
1746608998.8173165,-1.240753173828125,-6.555254936218261,7.170069217681886
1746608998.9132628,-1.2406344413757324,-6.5662851333618155,7.173940181732179
1746608999.0098622,-1.2428739070892334,-6.573148250579833,7.166814327239991
1746608999.105864,-1.2412352561950684,-6.563250541687011,7.171519279479981
1746608999.2055588,-1.2431018352508545,-6.559354305267333,7.162127017974854
1746608999.302937,-1.2467494010925293,-6.56439447402954,7.170733451843263
1746608999.418298,-1.2468749284744263,-6.569010734558105,7.168924808502198
1746608999.4925835,-1.253503680229187,-6.570168495178222,7.173377990722657
1746608999.58746,-1.2425613403320312,-6.548789501190185,7.1684560775756845
1746608999.681406,-1.1671838760375977,-6.395207405090331,7.08486557006836
1746608999.782038,-1.3084149360656738,-6.651811122894286,7.194268226623536
1746608999.8989942,-1.188953161239624,-6.403614997863769,7.248489379882813
1746608999.9733815,-1.2588393688201904,-6.60848045349121,7.198257923126222
1746609000.0674822,-1.2093775272369385,-6.48542833328247,7.172247886657716
1746609000.163664,-1.2135502099990845,-6.609631538391112,7.179493427276612
1746609000.265195,-1.1870112419128418,-6.54735231399536,7.242072582244874
1746609000.3822277,-1.2401069402694702,-6.584962368011474,7.193422794342042
1746609000.4496715,-1.272864580154419,-6.58985137939453,7.164914131164552
1746609000.5477166,-1.263184666633606,-6.569776058197021,7.174652099609376
1746609000.6470947,-1.2680292129516602,-6.566946029663085,7.19445037841797
1746609000.7370079,-1.2378990650177002,-6.55582046508789,7.179279327392579
1746609000.869844,-1.2171156406402588,-6.544653892517089,7.161956787109376
1746609000.93064,-1.2123786211013794,-6.542149066925048,7.178485870361329
1746609001.0262375,-1.2427489757537842,-6.564927101135253,7.180206775665284
1746609001.123479,-1.250712275505066,-6.566660404205321,7.168694972991944
1746609001.2246954,-1.2337689399719238,-6.560624122619628,7.180501461029054
1746609001.3402293,-1.266364574432373,-6.568807125091552,7.15857219696045
1746609001.4115107,-1.2493574619293213,-6.563804149627685,7.156525135040284
1746609001.5072358,-1.240841269493103,-6.55951166152954,7.164108276367188
1746609001.603612,-1.225151538848877,-6.508307456970214,7.169136047363282
1746609001.70169,-1.2560101747512817,-6.581446170806884,7.176037311553956
1746609001.8201578,-1.269811749458313,-6.562920093536376,7.170121669769288
1746609001.8972592,-1.2437046766281128,-6.546422004699706,7.184168338775636
1746609001.9909456,-1.2414014339447021,-6.572364330291747,7.197673797607423
1746609002.0934691,-1.232180118560791,-6.536601543426513,7.156801700592042
1746609002.1861775,-1.213808298110962,-6.53989028930664,7.172903060913087
1746609002.2764263,-1.2315928936004639,-6.558595180511474,7.17406988143921
1746609002.3723583,-1.2305189371109009,-6.5365657806396475,7.161194324493409
1746609002.4773474,-1.2343506813049316,-6.546837329864501,7.166731357574464
1746609002.5646482,-1.2324597835540771,-6.5454769134521475,7.18776559829712
1746609002.660995,-1.2452152967453003,-6.57483959197998,7.16480302810669
1746609002.7805023,-1.2576713562011719,-6.560834407806396,7.157700061798097
1746609002.8529184,-1.2394009828567505,-6.56209897994995,7.173726081848145
1746609002.9480028,-1.2345695495605469,-6.56059980392456,7.140209197998048
1746609003.045007,-1.2232890129089355,-6.5435848236083975,7.180351734161378
1746609003.1498575,-1.2458853721618652,-6.576244831085204,7.170300960540772
1746609003.2615182,-1.2444031238555908,-6.562239170074462,7.181512355804444
1746609003.3331625,-1.24264395236969,-6.54688549041748,7.171054363250733
1746609003.4312782,-1.2217624187469482,-6.5507869720458975,7.193296432495118
1746609003.525133,-1.2369344234466553,-6.538206100463866,7.173854351043702
1746609003.621106,-1.2577208280563354,-6.567346572875976,7.17196273803711
1746609003.7181315,-1.2469781637191772,-6.551307201385497,7.1680946350097665
1746609003.8137665,-1.2523314952850342,-6.572094917297362,7.17134714126587
1746609003.912654,-1.2397847175598145,-6.564006328582763,7.1808509826660165
1746609004.0059512,-1.2492738962173462,-6.559884071350097,7.168015480041505
1746609004.1084023,-1.2400667667388916,-6.561816215515136,7.164141654968263
1746609004.1986377,-1.2412163019180298,-6.557413101196288,7.17492437362671
1746609004.2944546,-1.2467206716537476,-6.5571627616882315,7.168806552886964
1746609004.3914654,-1.2417327165603638,-6.562426567077636,7.169739723205567
1746609004.4869998,-1.2424612045288086,-6.556778907775878,7.17146396636963
1746609004.5846698,-1.2476060390472412,-6.562271118164062,7.189037799835206
1746609004.6784513,-1.2447311878204346,-6.5528221130371085,7.170948505401612
1746609004.7746537,-1.254212498664856,-6.562874317169189,7.174582958221436
1746609004.8726242,-1.2455254793167114,-6.569437026977538,7.1725244522094735
1746609004.9669113,-1.2428269386291504,-6.5584349632263175,7.183607578277589
1746609005.0647697,-1.2495719194412231,-6.568615436553954,7.173358917236329
1746609005.1819637,-1.2417327165603638,-6.565348625183105,7.179408550262452
1746609005.25534,-1.2399293184280396,-6.5606675148010245,7.1668152809143075
1746609005.3487554,-1.2458842992782593,-6.5555639266967765,7.165706157684327
1746609005.4477007,-1.2391221523284912,-6.552143096923827,7.173614501953126
1746609005.5431433,-1.2423253059387207,-6.541769504547118,7.1741681098938
1746609005.639701,-1.239304542541504,-6.558740615844726,7.175457000732423
1746609005.7360106,-1.2383579015731812,-6.5622920989990225,7.183492183685304
1746609005.8312364,-1.2422568798065186,-6.556957721710204,7.173158645629884
1746609005.9276063,-1.2413580417633057,-6.5665292739868155,7.16494369506836
1746609006.0295389,-1.2341872453689575,-6.5505967140197745,7.180381774902345
1746609006.1206436,-1.14906644821167,-6.487888813018798,6.942174911499024
1746609006.223985,-1.1938961744308472,-6.520108222961425,7.246872901916505
1746609006.3123398,-1.220043420791626,-6.484567165374755,7.20107126235962
1746609006.4082885,-1.2564069032669067,-6.554265022277831,7.126199245452882
1746609006.50433,-1.242850661277771,-6.571810245513915,7.190364360809327
1746609006.6008706,-1.2605797052383423,-6.557316780090331,7.162353515625001
1746609006.6966522,-1.2348926067352295,-6.551989078521728,7.16454029083252
1746609006.793127,-1.2507237195968628,-6.5560665130615225,7.17517900466919
1746609006.888448,-1.2519290447235107,-6.554256916046142,7.168206214904786
1746609006.9927068,-1.2432963848114014,-6.555713176727294,7.169988155364991
1746609007.081018,-1.2188551425933838,-6.513678073883056,7.171344280242921
1746609007.179391,-1.2286688089370728,-6.561984062194823,7.246447086334229
1746609007.2725863,-1.2335385084152222,-6.520314693450927,7.14432716369629
1746609007.3740773,-1.2622179985046387,-6.580021381378173,7.153508663177491
1746609007.4658656,-1.2474271059036255,-6.553140640258788,7.196444034576417
1746609007.5617187,-1.2373924255371094,-6.581044197082519,7.156714439392091
1746609007.657435,-1.2540562152862549,-6.578143596649169,7.169720649719239
1746609007.7534516,-1.2720040082931519,-6.688282012939452,7.133073806762696
1746609007.8471923,-1.2410961389541626,-6.505266189575194,7.171529293060304
1746609007.949685,-1.2349331378936768,-6.582712650299071,7.167279720306397
1746609008.0639534,-1.2285915613174438,-6.528298377990722,7.211274147033692
1746609008.1358728,-1.240334391593933,-6.558684825897216,7.162158966064454
1746609008.2318637,-1.222480297088623,-6.544788360595702,7.17262887954712
1746609008.3274193,-1.235967755317688,-6.568516731262206,7.183119297027589
1746609008.425852,-1.247423529624939,-6.565414428710937,7.172741413116456
1746609008.5332072,-1.2479231357574463,-6.5926756858825675,7.163630008697511
1746609008.619135,-1.2419826984405518,-6.573915481567382,7.176525592803956
1746609008.7144785,-1.2341328859329224,-6.546483039855956,7.16207504272461
1746609008.808857,-1.2460708618164062,-6.558530330657958,7.179192066192628
1746609008.9178362,-1.260151982307434,-6.571655750274657,7.191443920135499
1746609009.0332646,-1.252682089805603,-6.575782299041747,7.155706405639649
1746609009.0985575,-1.1348620653152466,-6.433470726013183,6.8845229148864755
1746609009.1951602,-1.2141822576522827,-6.707663059234618,7.179420948028565
1746609009.2886999,-1.2174330949783325,-6.457200050354003,7.128803730010987
1746609009.386763,-1.2497440576553345,-6.5868821144103995,7.1848487854003915
1746609009.488726,-1.2364882230758667,-6.560694217681884,7.169879436492921
1746609009.5829308,-1.23650062084198,-6.557017803192138,7.161351680755616
1746609009.6753979,-1.22922945022583,-6.572120666503905,7.1884546279907235
1746609009.774548,-1.2376574277877808,-6.556921958923339,7.18184518814087
1746609009.867829,-1.242202639579773,-6.561565399169921,7.171932220458985
1746609009.9640827,-1.2439018487930298,-6.573404788970946,7.172032833099366
1746609010.0595624,-1.249239206314087,-6.5725951194763175,7.181918144226075
1746609010.1556218,-1.2332857847213745,-6.570406436920165,7.1596131324768075
1746609010.2517197,-1.2463430166244507,-6.564866542816161,7.177853584289552
1746609010.3459353,-1.250433087348938,-6.565473556518554,7.162427425384522
1746609010.4664443,-1.234690546989441,-6.563152790069579,7.174521923065186
1746609010.5385616,-1.2414604425430298,-6.5694637298583975,7.171457767486573
1746609010.6346033,-1.2231048345565796,-6.532704830169677,7.199460983276368
1746609010.7305436,-1.2382978200912476,-6.562480926513671,7.158533573150636
1746609010.8344448,-1.2416670322418213,-6.573376655578612,7.1791749000549325
1746609010.948596,-1.2360148429870605,-6.559273719787597,7.143644809722901
1746609011.0197165,-1.2029136419296265,-6.5738158226013175,7.180914878845216
1746609011.1157868,-1.2470550537109375,-6.482239246368407,7.1681203842163095
1746609011.2114983,-1.1865875720977783,-6.337574005126952,7.206179141998292
1746609011.310152,-1.2230442762374878,-6.553202629089355,7.1901822090148935
1746609011.4287584,-1.1792683601379395,-6.40076446533203,7.195842266082765
1746609011.500478,-1.2466288805007935,-6.62464141845703,7.152883529663087
1746609011.5960128,-1.2154875993728638,-6.529385566711425,7.189215660095216
1746609011.692905,-1.2274173498153687,-6.575161457061767,7.15933656692505
1746609011.7954824,-1.2494521141052246,-6.58114194869995,7.155190944671632
1746609011.9085307,-1.2356618642807007,-6.574914932250976,7.07493019104004
1746609011.9802306,-1.2484863996505737,-6.619447708129882,7.1758766174316415
1746609012.0756545,-1.2302095890045166,-6.595624923706054,7.155114173889161
1746609012.1735704,-1.1664999723434448,-6.345437049865722,7.164929389953614
1746609012.272904,-1.2627170085906982,-6.635355472564696,7.19009017944336
1746609012.3887932,-1.2553844451904297,-6.505886554718017,7.259876251220704
1746609012.4599426,-1.2987916469573975,-6.619847297668456,7.074838161468507
1746609012.5560968,-1.2347018718719482,-6.569465160369872,7.202809810638429
1746609012.6514885,-1.2402613162994385,-6.563527107238769,7.181859016418458
1746609012.750847,-1.2432899475097656,-6.548455238342284,7.164853096008302
1746609012.8733232,-1.0993949174880981,-6.613977432250976,7.105701923370362
1746609012.9409857,-1.2108850479125977,-6.4703683853149405,7.16692066192627
1746609013.0365324,-1.2119158506393433,-6.54133653640747,7.175629138946534
1746609013.1326294,-1.2446563243865967,-6.574536800384521,7.183556556701661
1746609013.2326376,-1.219403624534607,-6.565659046173095,7.175605297088624
1746609013.3505874,-1.2230486869812012,-6.555127143859862,7.151540279388429
1746609013.4220877,-1.249964714050293,-6.567306518554687,7.175556182861329
1746609013.5181816,-1.2234474420547485,-6.5492210388183585,7.179950237274171
1746609013.616136,-1.2282894849777222,-6.536851882934569,7.158685207366944
1746609013.7245739,-1.2340048551559448,-6.563151359558105,7.170550823211671
1746609013.8302686,-1.2318800687789917,-6.565915584564208,7.182178497314454
1746609013.9027581,-1.2338284254074097,-6.556471347808837,7.168572902679444
1746609013.99778,-1.2392054796218872,-6.560945034027099,7.167994022369386
1746609014.095185,-1.4860000610351562,-7.154992103576659,7.389563560485841
1746609014.191726,-1.259698510169983,-6.6431846618652335,7.236018657684327
1746609014.291291,-1.2332253456115723,-6.630815505981444,7.2364797592163095
1746609014.381719,-1.1944832801818848,-6.486485004425048,7.176056861877442
1746609014.4823716,-1.2263126373291016,-6.534783363342284,7.146681785583497
1746609014.5770407,-1.2417473793029785,-6.59764814376831,7.185587406158448
1746609014.6788979,-1.2686384916305542,-6.571120738983153,7.15894651412964
1746609014.7682993,-1.3004316091537476,-6.821557998657226,7.164551258087159
1746609014.864027,-1.2637361288070679,-6.694562911987304,7.16027593612671
1746609014.9600759,-1.2863634824752808,-6.599452018737792,7.243442058563233
1746609015.0555112,-1.2734342813491821,-6.50218629837036,7.138183116912843
1746609015.1519475,-1.2135342359542847,-6.573684692382812,7.220113754272462
1746609015.2556925,-1.2216273546218872,-6.421456813812255,7.2072744369506845
1746609015.3490007,-1.2250289916992188,-6.667123317718505,7.144157886505128
1746609015.4407504,-1.2573870420455933,-6.609907150268554,7.153882980346681
1746609015.536422,-1.2321192026138306,-6.460010051727294,7.169589519500733
1746609015.638118,-1.1187019348144531,-6.6323838233947745,7.243389129638673
1746609015.7299447,-1.2316548824310303,-6.57671308517456,7.226664543151856
1746609015.825196,-1.2235368490219116,-6.53543996810913,7.150815963745118
1746609015.9206915,-1.2447198629379272,-6.56499147415161,7.187909126281739
1746609016.0167003,-1.2326536178588867,-6.557869434356689,7.16802215576172
1746609016.119065,-1.2508971691131592,-6.56146478652954,7.156984329223634
1746609016.2309358,-1.2302497625350952,-6.517993450164794,7.23216199874878
1746609016.3031077,-1.2484617233276367,-6.568917274475097,7.185103416442872
1746609016.398535,-1.2387490272521973,-6.529472827911376,7.17992401123047
1746609016.4975512,-1.2501416206359863,-6.601918220520019,7.160729408264161
1746609016.602017,-1.2368812561035156,-6.548626422882079,7.161791801452638
1746609016.7158358,-1.236734390258789,-6.546503067016601,7.182848453521729
1746609016.7847114,-1.2245757579803467,-6.439644813537597,7.2365784645080575
1746609016.8796763,-1.2311460971832275,-6.585958957672118,7.177038192749024
1746609016.9757814,-1.2320449352264404,-6.561513423919677,7.167593479156495
1746609017.0714395,-1.2485562562942505,-6.577792167663573,7.197830677032472
1746609017.197268,-1.2535070180892944,-6.5559935569763175,7.1647610664367685
1746609017.263683,-1.2465908527374268,-6.5382347106933585,7.155199527740479
1746609017.3599973,-1.251912236213684,-6.5701265335083,7.177017211914063
1746609017.455604,-1.2349655628204346,-6.553636550903319,7.192785263061524
1746609017.5546374,-1.247090220451355,-6.539968490600585,7.167649269104005
1746609017.6558905,-1.2392220497131348,-6.555527210235595,7.186290740966798
1746609017.746583,-1.2340772151947021,-6.5479745864868155,7.167316436767579
1746609017.8427477,-1.2333189249038696,-6.5623507499694815,7.170133113861085
1746609017.938929,-1.2387615442276,-6.543373107910155,7.1818604469299325
1746609018.042073,-1.2538944482803345,-6.556072711944579,7.166968345642091
1746609018.128352,-1.2362282276153564,-6.557447433471679,7.174180507659913
1746609018.2271655,-1.2466614246368408,-6.56760549545288,7.1773109436035165
1746609018.3211877,-1.2536897659301758,-6.562591075897216,7.1775174140930185
1746609018.4170506,-1.2341924905776978,-6.557111263275146,7.163908481597901
1746609018.5218222,-1.2312090396881104,-6.574415683746337,7.16219186782837
1746609018.633341,-1.2300081253051758,-6.5455050468444815,7.177180767059327
1746609018.7046552,-1.240423321723938,-6.5589632987976065,7.182366847991944
1746609018.8013268,-1.2403464317321777,-6.562505245208739,7.1758451461792
1746609018.9006274,-1.2369451522827148,-6.55384874343872,7.174924850463868
1746609018.995301,-1.239672064781189,-6.5732173919677725,7.175771713256837
1746609019.116457,-1.22959303855896,-6.548477172851562,7.162152290344239
1746609019.1857812,-1.232663869857788,-6.55293846130371,7.167008876800538
1746609019.2847724,-1.235414743423462,-6.5687313079833975,7.175734519958497
1746609019.377376,-1.3426471948623657,-6.37876272201538,7.14274549484253
1746609019.482529,-1.2607296705245972,-6.556149005889892,7.133902549743653
1746609019.5970058,-1.2448376417160034,-6.535685539245605,7.164367198944093
1746609019.6700213,-1.2329096794128418,-6.584052085876464,7.182918071746827
1746609019.7618496,-1.2381993532180786,-6.549357414245605,7.170629024505616
1746609019.8587031,-1.2405657768249512,-6.531951904296874,7.169170379638673
1746609019.9544725,-1.2597057819366455,-6.537279605865478,7.171264648437501
1746609020.0586934,-1.0834492444992065,-6.523911476135253,7.074288845062257
1746609020.148903,-1.2489535808563232,-6.464876651763915,7.17670488357544
1746609020.2489634,-1.2494525909423828,-6.609370231628417,7.122369289398194
1746609020.3409488,-1.2640808820724487,-6.635232925415038,7.155439376831056
1746609020.4426107,-1.3470708131790161,-6.70863389968872,7.251482963562013
1746609020.555656,-1.26021409034729,-6.54414939880371,7.206233978271485
1746609020.6282725,-1.2175155878067017,-6.581815719604491,7.149460792541505
1746609020.7232416,-1.2223892211914062,-6.575626373291015,7.154277801513673
1746609020.8190727,-1.2342642545700073,-6.579535007476806,7.1677517890930185
1746609020.9218795,-1.217616319656372,-6.5579233169555655,7.184640407562257
1746609021.0170844,-1.2297759056091309,-6.547921657562255,7.180167675018311
1746609021.111729,-1.2875890731811523,-6.968449115753173,6.929697513580323
1746609021.203432,-1.2606377601623535,-6.489359855651855,7.342426776885987
1746609021.2998366,-1.2020528316497803,-6.470192909240722,7.145222663879395
1746609021.4044006,-1.1449276208877563,-6.472290039062499,7.123545646667481
1746609021.5161748,-1.2525373697280884,-6.781147480010985,7.1400465965271005
1746609021.5881197,-1.2349647283554077,-6.537856578826903,7.158342838287354
1746609021.6894429,-1.2523936033248901,-6.576158046722411,7.191298484802247
1746609021.7794962,-1.1389875411987305,-6.526268005371093,6.963449954986573
1746609021.8807976,-1.2060871124267578,-6.568157196044921,7.228185653686524
1746609021.9973958,-1.30191171169281,-6.1568565368652335,7.219097137451173
1746609022.0690627,-1.279974102973938,-6.7569870948791495,7.262024402618409
1746609022.167098,-1.3330851793289185,-6.738625526428222,7.224942684173585
1746609022.2628188,-1.2198148965835571,-6.621532440185546,7.166377067565919
1746609022.3591576,-1.231632113456726,-6.566524982452392,7.211776733398438
1746609022.4550223,-1.276065468788147,-6.56861925125122,7.1290040016174325
1746609022.5507734,-1.2994529008865356,-6.474174976348876,7.159071445465089
1746609022.6465888,-1.2271307706832886,-6.685184478759765,7.206039428710938
1746609022.740943,-1.187811017036438,-6.445482730865478,7.158680438995362
1746609022.838349,-1.2291882038116455,-6.570239543914794,7.1951003074646005
1746609022.9572904,-1.2428938150405884,-6.573244094848632,7.142454147338868
1746609023.0290868,-1.2349990606307983,-6.571334362030028,7.158228874206544
1746609023.1251924,-1.2425110340118408,-6.5783395767211905,7.171417713165284
1746609023.2210088,-1.235271692276001,-6.564688205718993,7.1917176246643075
1746609023.326619,-1.2365657091140747,-6.565412998199462,7.158787727355958
1746609023.4404182,-1.249290108680725,-6.5791306495666495,7.177820682525636
1746609023.5102386,-1.254867672920227,-6.553707599639892,7.179506778717042
1746609023.605983,-1.248264193534851,-6.5665621757507315,7.183816432952882
1746609023.701472,-1.2365376949310303,-6.5522799491882315,7.1647658348083505
1746609023.8021326,-1.2780768871307373,-6.641856670379638,7.243269443511964
1746609023.9197035,-1.2440229654312134,-6.535329818725585,7.1800904273986825
1746609023.9906526,-1.2339202165603638,-6.457019805908202,7.208365917205811
1746609024.089051,-1.2561331987380981,-6.600639820098876,7.153635025024415
1746609024.1838858,-1.2381737232208252,-6.52777862548828,7.153751850128175
1746609024.2867963,-1.1202975511550903,-6.4429988861083975,6.765225887298585
1746609024.3999393,-1.2773901224136353,-6.783757209777831,7.153858661651612
1746609024.4727507,-1.1103456020355225,-6.403528213500976,6.792620182037354
1746609024.5722747,-1.2407636642456055,-6.5957555770874015,7.1584792137146005
1746609024.6645205,-1.181675910949707,-6.493710041046142,7.170832633972169
1746609024.7597153,-1.235591173171997,-6.631094455718993,7.222061157226563
1746609024.8810003,-1.2251077890396118,-6.593322753906249,7.17325782775879
1746609024.9518814,-1.251510500907898,-6.600615501403808,7.286224842071534
1746609025.0478525,-1.2324317693710327,-6.720923423767089,7.199204444885255
1746609025.143979,-1.233845829963684,-6.659667015075683,7.220480918884278
1746609025.2441466,-1.2380732297897339,-6.501235961914062,7.138172149658204
1746609025.3608978,-1.2260522842407227,-6.548044681549071,7.177992820739747
1746609025.4328258,-1.192933440208435,-6.945194721221923,7.206346988677979
1746609025.5334969,-1.1897666454315186,-6.410242080688476,7.1966543197631845
1746609025.6255493,-1.2912770509719849,-6.657029628753661,7.13326644897461
1746609025.7254062,-1.2355265617370605,-6.574659824371337,7.160781860351563
1746609025.841062,-1.2499709129333496,-6.600156307220458,7.177287578582765
1746609025.9168913,-1.1405081748962402,-6.352880954742431,6.999040126800538
1746609026.012399,-1.3012927770614624,-6.634775161743163,7.1371145248413095
1746609026.1065412,-1.2012335062026978,-6.518287658691405,7.195210456848145
1746609026.208565,-1.2445560693740845,-6.53297996520996,7.180211067199708
1746609026.2982416,-1.337668776512146,-6.718677520751952,7.265201091766358
1746609026.393367,-1.225881814956665,-6.603458404541015,7.1883888244628915
1746609026.4909317,-1.226617455482483,-6.518172740936278,7.15709400177002
1746609026.5860715,-1.2444440126419067,-6.609798908233642,7.189887046813966
1746609026.6821978,-1.244197130203247,-6.539438247680663,7.151504516601563
1746609026.8026674,-1.2693730592727661,-6.637761116027831,7.18404245376587
1746609026.8771768,-1.2334837913513184,-6.556821346282958,7.1195740699768075
1746609026.9721563,-1.2277640104293823,-6.553067207336425,7.182554721832276
1746609027.0666366,-1.223243236541748,-6.532810688018798,7.168787479400636
1746609027.1635535,-1.2301762104034424,-6.546313285827636,7.173546314239503
1746609027.2589712,-1.2296161651611328,-6.557758331298827,7.178847312927247
1746609027.3547904,-1.2350085973739624,-6.56840944290161,7.157129764556886
1746609027.4507165,-1.2411298751831055,-6.5873351097106925,7.185853004455567
1746609027.5466778,-1.2414779663085938,-6.5685396194458,7.161283969879151
1746609027.6427455,-1.26766836643219,-6.57697582244873,7.1648221015930185
1746609027.7643342,-1.2374283075332642,-6.5707736015319815,7.214584350585938
1746609027.8335686,-1.2621806859970093,-6.5523715019226065,7.2180142402648935
1746609027.932459,-1.234131932258606,-6.534651279449462,7.142045497894288
1746609028.0274577,-1.2145777940750122,-6.552699089050292,7.197921752929688
1746609028.1291287,-1.2384212017059326,-6.571493625640868,7.161107063293458
1746609028.2284162,-1.250327467918396,-6.566246986389159,7.163689136505128
1746609028.3158975,-1.241623044013977,-6.561088562011718,7.183520793914796
1746609028.411882,-1.2266981601715088,-6.550731658935546,7.1639699935913095
1746609028.5079405,-1.2228288650512695,-6.592267036437987,7.181648254394532
1746609028.6035674,-1.197798728942871,-6.577964782714843,7.147846698760987
1746609028.7222917,-1.2323119640350342,-6.588600158691405,7.136775016784669
1746609028.7941995,-1.2108443975448608,-6.573463916778564,7.17170810699463
1746609028.8997617,-1.2330622673034668,-6.578186035156249,7.172499179840089
1746609028.986914,-1.226575493812561,-6.547526836395263,7.156568050384522
1746609029.0848901,-1.236070990562439,-6.621335506439208,7.172414302825929
1746609029.186449,-1.2241060733795166,-6.561137199401855,7.174062728881837
1746609029.285173,-1.1990305185317993,-6.559228897094726,7.127978324890138
1746609029.3771358,-1.2258355617523193,-6.597876548767089,7.126151561737061
1746609029.468143,-1.2465726137161255,-6.547344684600829,7.209465980529786
1746609029.563511,-1.2330741882324219,-6.551367759704589,7.17894744873047
1746609029.6835237,-1.2521957159042358,-6.584480762481689,7.189645290374757
1746609029.754706,-1.2450428009033203,-6.577538013458251,7.180392742156983
1746609029.8528657,-1.2385485172271729,-6.552198886871337,7.1823487281799325
1746609029.9473398,-1.239966630935669,-6.548321247100829,7.1677942276000985
1746609030.046779,-1.2195725440979004,-6.5508713722228995,7.1935744285583505
1746609030.1664405,-1.2320383787155151,-6.552685737609862,7.15966033935547
1746609030.2359655,-1.2261826992034912,-6.55998945236206,7.1816091537475595
1746609030.332653,-1.231640100479126,-6.587751388549804,7.17679262161255
1746609030.4288306,-1.244052767753601,-6.544683933258056,7.176471710205079
1746609030.5268435,-1.2498912811279297,-6.566579818725585,7.196151733398438
1746609030.6447117,-1.2487536668777466,-6.5718698501586905,7.160078048706056
1746609030.7179227,-1.2983458042144775,-6.762067794799804,7.044113636016847
1746609030.8127155,-1.2293099164962769,-6.469102382659911,7.206065177917481
1746609030.921003,-1.2355424165725708,-6.567506313323974,7.15135145187378
1746609031.0161462,-1.2227754592895508,-6.533456802368163,7.186170578002931
1746609031.127284,-1.2384188175201416,-6.584028244018554,7.163525581359864
1746609031.196199,-1.2440063953399658,-6.577151298522948,7.162277221679688
1746609031.2984488,-1.2266552448272705,-6.56479263305664,7.169792652130128
1746609031.3881233,-1.226676106452942,-6.5600266456603995,7.172122478485108
1746609031.4963784,-1.201006531715393,-6.52081537246704,7.17249631881714
1746609031.6045442,-1.2276338338851929,-6.577649593353271,7.181083202362061
1746609031.680038,-1.2395774126052856,-6.587816715240478,7.17445468902588
1746609031.7768679,-1.2303286790847778,-6.5451340675353995,7.166455745697022
1746609031.8786662,-1.2252302169799805,-6.620948314666747,7.147507667541505
1746609031.974648,-1.2711912393569946,-6.509019374847411,7.117259979248048
1746609032.0853405,-1.236859679222107,-6.592837333679198,7.18073320388794
1746609032.155691,-1.2179349660873413,-6.5618257522583,7.184309005737306
1746609032.2524161,-1.2251900434494019,-6.56183624267578,7.172379016876222
1746609032.3486226,-1.2212746143341064,-6.560339927673339,7.1705102920532235
1746609032.4442291,-1.2316358089447021,-6.538984775543212,7.16674041748047
1746609032.5647745,-1.2464691400527954,-6.572237014770507,7.168283939361573
1746609032.636024,-1.2559585571289062,-6.607453823089599,7.175964355468751
1746609032.733568,-1.223502516746521,-6.566670417785644,7.153474807739259
1746609032.8308773,-1.244124412536621,-6.559157371520995,7.17036008834839
1746609032.9367537,-1.2204269170761108,-6.469318866729735,7.204613208770753
1746609033.0452592,-1.2546095848083496,-6.578584671020507,7.267878055572511
1746609033.1171794,-1.2482129335403442,-6.448044776916503,7.150476932525636
1746609033.2130358,-1.2503974437713623,-6.549160957336425,7.117709636688233
1746609033.309778,-1.241882085800171,-6.604325771331786,7.231634140014649
1746609033.410291,-1.235653042793274,-6.5817317962646475,7.1800198554992685
1746609033.5254643,-1.2423858642578125,-6.539390563964843,7.136372089385987
1746609033.6006389,-1.2326408624649048,-6.572361946105956,7.211288452148438
1746609033.692651,-1.248128890991211,-6.554661273956298,7.205336093902589
1746609033.7904646,-1.23948335647583,-6.545026302337646,7.163837909698487
1746609033.895954,-1.2285785675048828,-6.545345783233642,7.184327125549317
1746609034.0103817,-1.2153825759887695,-6.576711654663085,7.175508975982667
1746609034.0772662,-1.2218838930130005,-6.564062595367431,7.1469364166259775
1746609034.1745794,-1.217125415802002,-6.563405036926269,7.176689624786378
1746609034.2755313,-1.2340960502624512,-6.561579227447509,7.162001609802247
1746609034.3665433,-1.2379831075668335,-6.560231685638427,7.167951583862306
1746609034.4865146,-1.2334201335906982,-6.553552627563476,7.16873598098755
1746609034.5577195,-1.2410320043563843,-6.567101478576659,7.176447391510011
1746609034.6542904,-1.2308837175369263,-6.5626487731933585,7.159345149993897
1746609034.7489898,-1.229973554611206,-6.564746379852294,7.181184768676759
1746609034.8500762,-1.2374861240386963,-6.5530662536621085,7.171587944030763
1746609034.9667697,-1.230257272720337,-6.571302890777587,7.155946731567384
1746609035.0383785,-1.2334651947021484,-6.554091930389403,7.164691448211671
1746609035.1341016,-1.221412181854248,-6.571282386779784,7.171374320983888
1746609035.230182,-1.2182903289794922,-6.55076503753662,7.166519641876222
1746609035.3289838,-1.225753903388977,-6.567492961883544,7.170389652252198
1746609035.446466,-1.2362960577011108,-6.560635566711425,7.166605472564698
1746609035.5180967,-1.2457680702209473,-6.562935829162597,7.1765775680542
1746609035.6148562,-1.2299400568008423,-6.559612751007079,7.1771254539489755
1746609035.711021,-1.2333717346191406,-6.56346559524536,7.1820950508117685
1746609035.8143282,-1.239176630973816,-6.56241226196289,7.168254852294923
1746609035.9323666,-1.2320952415466309,-6.56188154220581,7.1752896308898935
1746609035.9990935,-1.2312365770339966,-6.5614867210388175,7.178088188171388
1746609036.0985816,-1.2383252382278442,-6.565679073333739,7.171454429626466
1746609036.1955905,-1.2371528148651123,-6.570547580718993,7.168624877929688
1746609036.2902677,-1.2192816734313965,-6.553098201751708,7.180881023406983
1746609036.3862107,-1.2205102443695068,-6.573826313018798,7.1777734756469735
1746609036.485368,-1.2828599214553833,-6.630189895629882,7.205735206604005
1746609036.5764744,-1.2366615533828735,-6.549067497253417,7.176105499267579
1746609036.672174,-1.2343683242797852,-6.563255786895751,7.166351318359376
1746609036.7679045,-1.2460976839065552,-6.566320896148681,7.182153224945069
1746609036.864209,-1.2347102165222168,-6.5609750747680655,7.175207138061524
1746609036.9592912,-1.223604440689087,-6.563079833984374,7.185516834259034
1746609037.055415,-1.2242697477340698,-6.563374996185302,7.168976783752442
1746609037.1521082,-1.2325589656829834,-6.552622318267821,7.161880493164063
1746609037.247885,-1.2243268489837646,-6.560056209564208,7.179269790649415
1746609037.3500602,-1.2247473001480103,-6.556654453277587,7.175368309020997
1746609037.440164,-1.2355233430862427,-6.564967155456542,7.163869857788087
1746609037.5364015,-1.235642671585083,-6.566514968872069,7.195804119110108
1746609037.6322415,-1.231392502784729,-6.566207885742187,7.18531084060669
1746609037.7323542,-1.232772946357727,-6.550191402435302,7.157544136047364
1746609037.824758,-1.2267615795135498,-6.561052322387694,7.1779541969299325
1746609037.918102,-1.2391780614852905,-6.5760531425476065,7.168041229248048
1746609038.0138602,-1.21493399143219,-6.570421218872069,7.164741039276124
1746609038.1099756,-1.2473738193511963,-6.561248779296874,7.1712026596069345
1746609038.2092938,-1.213526725769043,-6.526535034179687,7.177606105804444
1746609038.3082883,-1.2358384132385254,-6.580818653106689,7.183817863464356
1746609038.4008925,-1.239406943321228,-6.547408580780028,7.150172233581544
1746609038.4997525,-1.239636778831482,-6.596268653869628,7.175739288330079
1746609038.5926974,-1.212796688079834,-6.5449862480163565,7.198430061340333
1746609038.6943076,-1.2385393381118774,-6.562285900115966,7.178262233734132
1746609038.7853935,-1.190632700920105,-6.4598422050476065,7.169794559478761
1746609038.8824384,-1.2211970090866089,-6.544357776641845,7.17016887664795
1746609038.97788,-1.2061893939971924,-6.552692890167235,7.181967735290528
1746609039.0724316,-1.2107282876968384,-6.555588245391845,7.15334177017212
1746609039.1716433,-1.2347413301467896,-6.57774782180786,7.1857290267944345
1746609039.287619,-1.23745858669281,-6.563629150390624,7.162846088409425
1746609039.366472,-1.2339017391204834,-6.579754352569579,7.119331359863282
1746609039.4575572,-1.2173843383789062,-6.558954238891601,7.191064357757569
1746609039.5530944,-1.25501549243927,-6.658596992492675,7.0656704902648935
1746609039.6492496,-1.2133870124816895,-6.638049602508544,7.188985824584962
1746609039.745452,-1.2285261154174805,-6.544053077697753,7.126138210296632
1746609039.8400018,-1.2191840410232544,-6.624778270721435,7.180856704711915
1746609039.935079,-1.2057929039001465,-6.572423458099364,7.192686080932618
1746609040.0310614,-1.2022489309310913,-6.538057327270507,7.162198066711427
1746609040.1293175,-1.2192820310592651,-6.505944252014159,7.1784448623657235
1746609040.248967,-1.214987874031067,-6.551838874816894,7.176211833953858
1746609040.3202248,-1.2256219387054443,-6.544888496398925,7.173605918884278
1746609040.4158802,-1.2388243675231934,-6.549650192260741,7.161643981933595
1746609040.5117314,-1.2433366775512695,-6.59284210205078,7.1781067848205575
1746609040.6200337,-1.2297308444976807,-6.559282302856444,7.183009624481202
1746609040.7278664,-1.2462875843048096,-6.558809280395507,7.161084651947022
1746609040.7993171,-1.2204169034957886,-6.546525955200194,7.184767246246339
1746609040.8973808,-1.2629046440124512,-6.540193080902099,7.2195377349853525
1746609040.9924128,-1.2343339920043945,-6.5710082054138175,7.1741299629211435
1746609041.0904176,-1.33717942237854,-6.977733135223388,7.151762008666993
1746609041.208752,-1.2918965816497803,-6.457678794860839,7.088973999023438
1746609041.2812102,-1.2676024436950684,-6.625863075256347,7.220717906951905
1746609041.375956,-1.2498230934143066,-6.5523943901062,7.194092273712159
1746609041.4718628,-1.2411158084869385,-6.4897727966308585,7.17384433746338
1746609041.5757034,-1.245103120803833,-6.552731990814208,7.181029796600343
1746609041.691494,-1.2257105112075806,-6.535855770111083,7.196174621582032
1746609041.7608578,-1.191859245300293,-6.542097568511962,7.187773227691651
1746609041.8580875,-1.2457517385482788,-6.564290046691894,7.210914611816407
1746609041.9538236,-1.228449821472168,-6.578413009643554,7.168763160705567
1746609042.0492227,-1.2030203342437744,-6.548981189727782,7.146077632904054
1746609042.1692264,-1.204980731010437,-6.630887508392333,7.189088821411134
1746609042.2406447,-1.2306437492370605,-6.5634469985961905,7.163312435150147
1746609042.3364475,-1.2441902160644531,-6.5628576278686515,7.159375190734864
1746609042.4323878,-1.2295335531234741,-6.572734355926513,7.159607410430909
1746609042.5333543,-1.2512855529785156,-6.603291988372802,7.163134098052979
1746609042.6489725,-1.2280460596084595,-6.5365610122680655,7.1626615524292
1746609042.720641,-1.2326710224151611,-6.565548419952392,7.178400516510011
1746609042.8164132,-1.2266217470169067,-6.543985843658446,7.175722122192384
1746609042.9124653,-1.2341605424880981,-6.543786048889159,7.174371242523194
1746609043.011109,-1.2447147369384766,-6.57746410369873,7.194120407104493
1746609043.128705,-1.2245458364486694,-6.568623542785644,7.1582727432250985
1746609043.2001703,-1.2249716520309448,-6.5573458671569815,7.168631553649903
1746609043.2963133,-1.2128772735595703,-6.554568290710448,7.181422710418702
1746609043.392104,-1.1935940980911255,-6.54222011566162,7.162005424499513
1746609043.496138,-1.2227904796600342,-6.507638454437255,7.131815433502198
1746609043.6099627,-1.2884900569915771,-6.678193569183349,7.226382732391358
1746609043.6819718,-1.259722113609314,-6.545126438140868,7.1422510147094735
1746609043.7782564,-1.2500841617584229,-6.5653905868530265,7.174078941345216
1746609043.871987,-1.2186745405197144,-6.562133312225341,7.161588668823243
1746609043.9700408,-1.2181187868118286,-6.574522018432616,7.195845127105714
1746609044.0893261,-1.221794605255127,-6.562208175659179,7.1790127754211435
1746609044.1670325,-1.2070839405059814,-6.514488220214843,7.1886539459228525
1746609044.2580163,-1.2103800773620605,-6.549414634704589,7.172419548034669
1746609044.3550806,-1.2275004386901855,-6.572481155395507,7.16576385498047
1746609044.4508212,-1.2322022914886475,-6.562503814697265,7.169046878814698
1746609044.5469491,-1.2233580350875854,-6.563791751861571,7.184370994567872
1746609044.6406271,-1.238378882408142,-6.566570281982421,7.176391601562501
1746609044.7369106,-1.2267929315567017,-6.569223880767821,7.182806968688966
1746609044.8326237,-1.23368239402771,-6.569061279296874,7.176597595214845
1746609044.9313107,-1.2250010967254639,-6.543616771697997,7.177388191223145
1746609045.0539143,-1.2377668619155884,-6.558320999145507,7.180577754974366
1746609045.123473,-1.237633466720581,-6.560584545135497,7.177747726440431
1746609045.218054,-1.2309730052947998,-6.544598579406737,7.176713943481446
1746609045.313908,-1.2418794631958008,-6.561449527740478,7.173314094543458
1746609045.4186134,-1.2523781061172485,-6.5554771423339835,7.212453842163087
1746609045.531381,-1.2336935997009277,-6.56676435470581,7.190001964569093
1746609045.6037972,-1.2291032075881958,-6.607651233673095,7.158564090728761
1746609045.7002108,-1.2098824977874756,-6.495523452758788,7.201028347015382
1746609045.794007,-1.2401851415634155,-6.621556758880614,7.2103543281555185
1746609045.89352,-1.2251077890396118,-6.55207347869873,7.189309597015382
1746609046.0131853,-1.197503924369812,-6.565956592559814,7.189122676849366
1746609046.0888615,-1.1217130422592163,-6.420424938201903,7.082811355590821
1746609046.1798565,-1.2474921941757202,-6.5503759384155265,7.206426143646241
1746609046.2753122,-1.245257019996643,-6.46257448196411,7.208148002624513
1746609046.3834307,-1.2289142608642578,-6.590749263763427,7.185669898986817
1746609046.4918983,-1.2153332233428955,-6.557459354400634,7.167659759521485
1746609046.5730236,-1.2206050157546997,-6.554000854492187,7.173915386199952
1746609046.6592505,-1.215060830116272,-6.576006889343261,7.1668434143066415
1746609046.7552023,-1.236998200416565,-6.5620455741882315,7.141264438629151
1746609046.8539062,-1.2303876876831055,-6.541181564331054,7.187042236328126
1746609046.971627,-1.2362767457962036,-6.560075759887694,7.170438289642335
1746609047.0431008,-1.2223196029663086,-6.54660940170288,7.1893091201782235
1746609047.1400502,-1.235718846321106,-6.562094211578368,7.174603939056397
1746609047.2356734,-1.228796124458313,-6.541329383850097,7.18430519104004
1746609047.335896,-1.2289987802505493,-6.592137336730956,7.1375513076782235
1746609047.452522,-1.2388195991516113,-6.569323062896728,7.185554504394532
1746609047.524082,-1.2159699201583862,-6.640607357025146,7.186936378479005
1746609047.6191604,-1.1991544961929321,-6.526253223419189,7.170413494110108
1746609047.7151594,-1.2457138299942017,-6.587338924407958,7.210373401641847
1746609047.8120518,-1.2205779552459717,-6.566218852996825,7.206843376159669
1746609047.9324172,-1.1960856914520264,-6.5879549980163565,7.119236946105958
1746609048.0165927,-1.171028733253479,-6.504818439483642,7.185165882110597
1746609048.1025488,-1.1921626329421997,-6.505550861358642,7.1467909812927255
1746609048.1973376,-1.2678269147872925,-6.568437099456786,7.178448677062989
1746609048.300066,-1.279482364654541,-6.597330570220946,7.2041711807250985
1746609048.4114985,-1.327113389968872,-6.544764518737792,7.2716078758239755
1746609048.482857,-1.276268482208252,-6.606426715850829,7.1816749572753915
1746609048.585378,-1.1502336263656616,-6.378730297088622,7.030986309051515
1746609048.676207,-1.286900281906128,-6.677073955535888,7.277679443359376
1746609048.7789707,-1.2973400354385376,-6.756121635437011,7.124737262725831
1746609048.8948503,-1.2383861541748047,-6.380666732788085,7.273839950561524
1746609048.9686382,-1.3310737609863281,-6.762871265411376,7.308786392211915
1746609049.0595374,-1.2417045831680298,-6.460656166076659,7.231946468353272
1746609049.1565042,-1.260894536972046,-6.539769172668456,7.2119779586792
1746609049.255422,-1.1648390293121338,-6.591959476470946,7.1068153381347665
1746609049.3734922,-1.3416560888290405,-6.750297546386718,7.348752021789552
1746609049.4460156,-1.2366969585418701,-6.5208420753478995,7.2189040184021005
1746609049.541471,-1.1543735265731812,-6.435859203338622,7.0704288482666025
1746609049.6378527,-1.226980447769165,-6.612596035003661,7.173739433288575
1746609049.737469,-1.288596510887146,-6.644927978515624,7.16439437866211
1746609049.854055,-1.1951249837875366,-6.467488288879394,7.2539381980896005
1746609049.9247491,-1.1967082023620605,-6.630229473114013,7.206285953521729
1746609050.0206919,-1.175144076347351,-6.55710220336914,7.082150459289552
1746609050.1166437,-1.2123031616210938,-6.46664810180664,7.2727932929992685
1746609050.221168,-1.330422043800354,-6.67529010772705,7.28855848312378
1746609050.309988,-1.2728230953216553,-6.536907672882079,7.246370315551759
1746609050.4063072,-1.2525560855865479,-6.394783973693847,7.395853519439698
1746609050.5015087,-1.2545729875564575,-6.4350266456603995,7.139273166656495
1746609050.5974534,-1.3695859909057617,-7.08100414276123,7.266522407531739
1746609050.6934712,-1.2529406547546387,-6.540918827056884,7.149274826049806
1746609050.8138952,-1.292980670928955,-6.569751262664794,7.164727687835694
1746609050.8853595,-1.236907958984375,-6.551784992218017,7.139361381530763
1746609050.980982,-1.2201383113861084,-6.512730598449706,7.164320468902589
1746609051.0773196,-1.2453110218048096,-6.56111717224121,7.175219535827638
1746609051.1814065,-1.2332179546356201,-6.528831005096435,7.146028995513917
1746609051.2936664,-1.2218025922775269,-6.5519347190856925,7.18748950958252
1746609051.3652346,-1.2273664474487305,-6.572120189666747,7.185169696807862
1746609051.4631622,-1.2276209592819214,-6.537829875946044,7.183657169342042
1746609051.5573418,-1.2258802652359009,-6.5495920181274405,7.192689895629884
1746609051.653322,-1.2178071737289429,-6.520278453826903,7.189918041229249
1746609051.774002,-1.211879849433899,-6.540228366851806,7.167954444885255
1746609051.8461277,-1.2116831541061401,-6.5475754737853995,7.16596555709839
1746609051.942343,-1.2940782308578491,-6.633504390716552,7.2344608306884775
1746609052.038978,-1.2218945026397705,-6.497082233428954,7.180763721466065
1746609052.1399705,-1.226706862449646,-6.5538244247436515,7.169964313507081
1746609052.2368562,-1.2754408121109009,-6.586392402648925,7.17613172531128
1746609052.327089,-1.2673615217208862,-6.591699600219726,7.1625332832336435
1746609052.4228325,-1.2726985216140747,-6.613152503967284,7.099612712860108
1746609052.519058,-1.1822013854980469,-6.476955890655517,7.150690555572511
1746609052.6150098,-1.2461612224578857,-6.4999423027038565,7.135673046112061
1746609052.733567,-1.1977890729904175,-6.5096726417541495,7.181512355804444
1746609052.804931,-1.211167335510254,-6.543006420135497,7.189218044281007
1746609052.9023037,-1.2269784212112427,-6.541353225708007,7.193049907684327
1746609052.9967768,-1.2353965044021606,-6.492548465728759,7.179695129394532
1746609053.100538,-1.255164384841919,-6.603899955749511,7.164602756500245
1746609053.2137833,-1.22447669506073,-6.557519912719726,7.176194667816163
1746609053.2878742,-1.304476261138916,-6.649442195892333,7.22341537475586
1746609053.3843455,-1.2480884790420532,-6.5950350761413565,7.180260181427003
1746609053.4796374,-1.22328519821167,-6.550863742828368,7.156260013580323
1746609053.575961,-1.2041863203048706,-6.467421054840087,7.147310733795167
1746609053.6716132,-1.2426122426986694,-6.5908784866333,7.20918893814087
1746609053.7674363,-1.1939371824264526,-6.538952350616454,7.220243453979493
1746609053.8637695,-1.197695016860962,-6.594010829925536,7.147103786468507
1746609053.962844,-1.1945769786834717,-6.473902225494384,7.188459873199464
1746609054.056438,-1.265849232673645,-6.546101570129394,7.234585762023927
1746609054.1749406,-1.2487690448760986,-6.529911994934081,7.183737754821778
1746609054.246678,-1.313172698020935,-6.554107189178466,7.3167152404785165
1746609054.3436115,-1.2484482526779175,-6.574717044830321,7.088622570037843
1746609054.4383607,-1.1877906322479248,-6.459147930145263,7.164363384246827
1746609054.535635,-1.249053716659546,-6.5726585388183585,7.167360782623292
1746609054.6556544,-1.217368483543396,-6.557141780853271,7.178864002227784
1746609054.727208,-1.220392107963562,-6.5489764213562,7.181815147399903
1746609054.824234,-1.2235509157180786,-6.530151844024657,7.167930603027345
1746609054.9184113,-1.2367008924484253,-6.540794372558593,7.177706718444825
1746609055.021928,-1.2191851139068604,-6.524026870727538,7.191903591156007
1746609055.1345496,-1.229815125465393,-6.572827339172362,7.183309555053712
1746609055.206967,-1.234214186668396,-6.506963253021239,7.185420513153077
1746609055.3031576,-1.2500191926956177,-6.5643343925476065,7.176538944244386
1746609055.3990912,-1.2023756504058838,-6.498851776123046,7.194169521331788
1746609055.4980311,-1.2138025760650635,-6.553264141082763,7.157865047454835
1746609055.615315,-1.2487456798553467,-6.593213081359862,7.257593631744386
1746609055.6871827,-1.2655342817306519,-6.671061992645263,7.199109554290772
1746609055.782908,-1.276413917541504,-6.596911907196044,7.20177984237671
1746609055.879272,-1.2628580331802368,-6.589808464050292,7.247451305389405
1746609055.9840875,-1.2039480209350586,-6.507389545440673,7.142350673675538
1746609056.0730457,-1.1979897022247314,-6.559414386749267,7.192449569702149
1746609056.168948,-1.2225627899169922,-6.61412763595581,7.16765308380127
1746609056.2646632,-1.2273056507110596,-6.4621286392211905,7.109250068664552
1746609056.363434,-1.2312418222427368,-6.541658401489257,7.139656066894532
1746609056.4550905,-1.236170768737793,-6.5739965438842765,7.202786922454835
1746609056.5762646,-1.2444953918457031,-6.581249237060546,7.201179027557374
1746609056.647583,-1.2522966861724854,-6.564867019653319,7.171268939971925
1746609056.7437406,-1.2170604467391968,-6.537706851959228,7.186625957489015
1746609056.8397267,-1.229225516319275,-6.558208942413329,7.178697586059571
1746609056.9426317,-1.2406913042068481,-6.543887138366698,7.168723583221436
1746609057.0559936,-1.1804062128067017,-6.551438808441161,7.156545639038087
1746609057.1275218,-1.051269292831421,-6.214366436004638,7.08165454864502
1746609057.2244573,-1.2654751539230347,-6.685487747192382,7.1344594955444345
1746609057.3205252,-1.2244559526443481,-6.420298099517821,7.188807487487794
1746609057.4200275,-1.2577056884765625,-6.553141593933105,7.247154235839845
1746609057.536792,-1.2549129724502563,-6.582200050354003,7.2149906158447275
1746609057.609382,-1.261975646018982,-6.563621997833251,7.24900245666504
1746609057.7053044,-1.221680760383606,-6.577227115631103,7.171679496765138
1746609057.8013022,-1.2252984046936035,-6.521195411682128,7.196057796478272
1746609057.9062912,-1.2427433729171753,-6.561765193939208,7.222119808197022
1746609058.0180333,-1.2264909744262695,-6.527612686157226,7.177907466888429
1746609058.0892465,-1.221795916557312,-6.584887504577636,7.174627304077149
1746609058.1852517,-1.2219667434692383,-6.520592689514159,7.191890716552735
1746609058.2810974,-1.2080930471420288,-6.54701280593872,7.161630153656007
1746609058.380609,-1.223821997642517,-6.559294700622558,7.1796841621398935
1746609058.4975076,-1.2333520650863647,-6.5861544609069815,7.229361534118653
1746609058.5690656,-1.248818039894104,-6.562194824218749,7.2011380195617685
1746609058.6650264,-1.2278788089752197,-6.533025264739989,7.158714294433595
1746609058.7663195,-1.2165642976760864,-6.57420778274536,7.1612257957458505
1746609058.8606918,-1.2097586393356323,-6.534631729125976,7.179916381835938
1746609058.9785986,-1.2174263000488281,-6.528985023498534,7.173767566680909
1746609059.0501876,-1.245193362236023,-6.555235862731933,7.1942996978759775
1746609059.1476388,-1.2409292459487915,-6.50611114501953,7.217175483703614
1746609059.2436087,-1.2267366647720337,-6.519139289855956,7.164897918701173
1746609059.338932,-1.2049401998519897,-6.548457622528075,7.170258045196534
1746609059.435063,-1.2103831768035889,-6.556223392486571,7.17371702194214
1746609059.5286982,-1.1916613578796387,-6.515502929687499,7.178769111633302
1746609059.6248944,-1.2298424243927002,-6.551528930664062,7.169741153717042
1746609059.7208111,-1.239457607269287,-6.560948848724364,7.183728694915772
1746609059.8246024,-1.2282662391662598,-6.5529513359069815,7.188764572143556
1746609059.9402192,-1.2531005144119263,-6.573473930358886,7.247209548950196
1746609060.0116086,-1.1781277656555176,-6.559870719909667,7.171093940734864
1746609060.1079807,-1.2944433689117432,-6.669878959655761,7.308012008666993
1746609060.2036145,-1.2066749334335327,-6.599190711975097,7.16967010498047
1746609060.299728,-1.1714977025985718,-6.51961851119995,7.1221561431884775
1746609060.4007041,-1.2138218879699707,-6.623262882232665,7.133932113647462
1746609060.491814,-1.2583166360855103,-6.556657791137694,7.203685760498048
1746609060.587639,-1.199536681175232,-6.481928348541259,7.1743435859680185
1746609060.6837943,-1.2138087749481201,-6.533249378204345,7.150747776031495
1746609060.7844803,-1.2118104696273804,-6.55095624923706,7.172595024108888
1746609060.8758357,-1.2680513858795166,-6.536745071411132,7.250566959381104
1746609060.971431,-1.2211838960647583,-6.541416645050048,7.1429128646850595
1746609061.0676408,-1.1668611764907837,-6.38494062423706,7.11098861694336
1746609061.1633935,-1.238542914390564,-6.610090255737304,7.196630001068116
1746609061.2603343,-1.164509654045105,-6.503490924835204,7.107786655426026
1746609061.3613887,-1.2566176652908325,-6.667714118957519,7.178479194641114
1746609061.4524167,-1.2626640796661377,-6.487877845764159,7.187925815582276
1746609061.5485241,-1.2020390033721924,-6.547173023223876,7.191684246063233
                                                                                                                                                                                                                                                          