timestamp,ax,ay,az
1746534314.060862,-3.55267333984375,-4.763988971710204,7.803990840911866
1746534314.1874163,-3.587756872177124,-4.708045482635497,7.824890613555909
1746534314.2540464,-3.5513782501220703,-4.741631031036376,7.806833267211915
1746534314.3643122,-3.5676844120025635,-4.696300506591796,7.8215956687927255
1746534314.440684,-3.585975170135498,-4.68676471710205,7.828444004058839
1746534314.5357232,-3.5588817596435547,-4.7506346702575675,7.807243824005128
1746534314.668306,-3.57747483253479,-4.708074092864989,7.820679187774659
1746534314.7269235,-3.5855822563171387,-4.679768085479735,7.835984706878663
1746534314.8247044,-3.539813995361328,-4.763035774230956,7.803521633148194
1746534314.9189904,-3.573934316635132,-4.701161861419677,7.825847625732423
1746534315.0150685,-3.5574073791503906,-4.7167720794677725,7.822714805603028
1746534315.1430125,-3.5655386447906494,-4.731653690338134,7.811867237091065
1746534315.2070827,-3.5768237113952637,-4.688405513763427,7.836073875427247
1746534315.30287,-3.540024518966675,-4.75788402557373,7.791160106658936
1746534315.3991778,-3.5644021034240723,-4.710795402526855,7.818129539489747
1746534315.495166,-3.562983274459839,-4.736849784851073,7.799007415771485
1746534315.6280782,-3.5576772689819336,-4.76201295852661,7.800923347473145
1746534315.706598,-3.5686001777648926,-4.700029850006103,7.820218563079835
1746534315.784194,-3.5491302013397217,-4.745431423187255,7.805051803588868
1746534315.8799431,-3.5689187049865723,-4.7413949966430655,7.788495540618897
1746534315.9744372,-3.5594756603240967,-4.767668724060058,7.785128116607667
1746534316.1043887,-3.5994880199432373,-4.644320487976073,7.770569324493409
1746534316.165782,-3.571133852005005,-4.716055393218993,7.72599220275879
1746534316.2621853,-3.534799337387085,-4.804138183593749,7.751322746276856
1746534316.3578763,-3.5582568645477295,-4.744351387023925,7.812284469604493
1746534316.453952,-3.550915479660034,-4.703389167785644,7.868686199188233
1746534316.5922406,-3.518223524093628,-4.725579261779784,7.892704963684083
1746534316.6473217,-3.5655288696289062,-4.8464317321777335,7.76435947418213
1746534316.7433765,-3.45694899559021,-4.944804191589355,7.905869007110597
1746534316.839212,-3.533371925354004,-5.007869243621825,7.891640186309815
1746534316.935147,-3.4408493041992188,-4.568286895751952,8.080245018005371
1746534317.0659485,-3.5755560398101807,-4.797386646270751,7.8166871070861825
1746534317.1272612,-3.5541813373565674,-4.7201757431030265,7.8018765449523935
1746534317.2233448,-3.5787534713745117,-4.7101964950561515,7.7654714584350595
1746534317.3200972,-3.558265447616577,-4.709894180297851,7.759400367736817
1746534317.416112,-3.585402488708496,-4.70594024658203,7.79943609237671
1746534317.5560672,-3.5282938480377197,-4.8129563331603995,7.810721874237061
1746534317.6079388,-3.544219970703125,-4.75979995727539,7.825109004974366
1746534317.7042332,-3.5781259536743164,-4.699692249298095,7.849647045135499
1746534317.799981,-3.5602757930755615,-4.7526841163635245,7.779970169067384
1746534317.8966076,-3.5375592708587646,-4.787666797637939,7.800279140472413
1746534318.024429,-3.5693581104278564,-4.723381996154784,7.8289856910705575
1746534318.0889688,-3.557983160018921,-4.654339313507079,7.822496891021729
1746534318.1850636,-3.571845769882202,-4.766801834106444,7.900910377502442
1746534318.281106,-3.3411643505096436,-5.597849369049071,7.962006092071534
1746534318.3772223,-3.545489549636841,-4.962827205657958,7.892313480377198
1746534318.51111,-3.5587270259857178,-4.6882662773132315,7.843984127044679
1746534318.5690827,-3.558224678039551,-4.646681308746337,7.840612411499024
1746534318.665003,-3.578343629837036,-4.6550230979919425,7.855578422546388
1746534318.7610397,-3.568854808807373,-4.71296215057373,7.817349910736085
1746534318.857008,-3.5451407432556152,-4.811106204986571,7.7880239486694345
1746534318.9875047,-3.5542988777160645,-4.794194698333739,7.777629852294923
1746534319.0497034,-3.5731449127197266,-4.705846309661864,7.842551231384278
1746534319.1471536,-3.565110683441162,-4.6873717308044425,7.820496082305909
1746534319.241954,-3.5492119789123535,-4.787756919860839,7.783096313476563
1746534319.340204,-3.562704563140869,-4.769152164459228,7.790537357330323
1746534319.4715638,-3.562255382537842,-4.702109813690185,7.814431667327882
1746534319.5302358,-3.5664327144622803,-4.635412693023681,7.810641288757325
1746534319.6272895,-3.555634021759033,-4.618166923522948,7.809332847595216
1746534319.723294,-3.5946922302246094,-4.633239269256591,7.847604751586915
1746534319.8195214,-3.5545363426208496,-4.68833827972412,7.831658840179444
1746534319.946891,-3.569887161254883,-4.674858093261718,7.815101146697999
1746534320.0112104,-3.587630271911621,-4.651295661926269,7.842865467071534
1746534320.1071782,-3.5541462898254395,-4.674479961395263,7.844371795654298
1746534320.2031612,-3.576834201812744,-4.65204906463623,7.833551883697511
1746534320.3000505,-3.5586516857147217,-4.723474979400634,7.823533058166505
1746534320.4338856,-3.564361095428467,-4.736531257629394,7.7992310523986825
1746534320.5016744,-3.5808591842651367,-4.715477943420409,7.81657361984253
1746534320.5881882,-3.5391318798065186,-4.747512817382812,7.8152174949646005
1746534320.6842349,-3.6025807857513428,-4.659550666809081,7.80443286895752
1746534320.7800853,-3.558500051498413,-4.735787391662597,7.817609786987306
1746534320.9074166,-3.593351364135742,-4.730363368988036,7.796293258666993
1746534320.9720879,-3.5456056594848633,-4.742938518524169,7.806298732757569
1746534321.068196,-3.5628890991210938,-4.636963367462157,7.863055229187013
1746534321.1640925,-3.5640151500701904,-4.683596611022948,7.819833278656007
1746534321.26017,-3.5090699195861816,-4.833984374999999,7.7914776802063
1746534321.3982592,-3.5852348804473877,-4.702742099761962,7.808434486389161
1746534321.454013,-3.575110673904419,-4.642036914825439,7.9343934059143075
1746534321.5486362,-3.5774879455566406,-4.483634948730468,7.88589096069336
1746534321.6443894,-3.848393201828003,-4.0550594329833975,8.111614227294922
1746534321.7415779,-3.6079492568969727,-4.258648395538329,8.028182983398438
1746534321.8695624,-3.552907705307007,-4.181679248809814,8.116548538208008
1746534321.9333956,-3.896453857421875,-3.5301682949066153,8.210084915161133
1746534322.0271664,-3.445544719696045,-4.366372108459472,8.02755355834961
1746534322.1232667,-3.711859941482544,-4.14634084701538,8.078667640686035
1746534322.2191541,-3.825150966644287,-4.02619981765747,8.033641815185547
1746534322.3555923,-3.458455801010132,-4.7269015312194815,7.943199157714845
1746534322.4139555,-3.546409845352173,-4.857619285583495,8.023909568786621
1746534322.51004,-3.447859525680542,-4.8562984466552725,8.062812805175781
1746534322.606141,-3.692375898361206,-4.5760107040405265,7.890470981597901
1746534322.700212,-3.5420520305633545,-4.421651363372802,7.899859428405763
1746534322.828536,-3.5798370838165283,-4.2677059173583975,8.02586841583252
1746534322.8932962,-3.6826844215393066,-4.053832054138183,8.076969146728516
1746534322.9892194,-3.607531785964966,-4.16332197189331,8.114113807678223
1746534323.085118,-3.640768527984619,-4.030322074890136,8.140055656433105
1746534323.1811836,-3.7174124717712402,-3.8840365409851065,8.15449333190918
1746534323.3174405,-3.6197738647460938,-4.039925098419189,8.11856460571289
1746534323.3731396,-3.6126718521118164,-4.050867557525634,8.096808433532715
1746534323.4699333,-3.6590914726257324,-4.070325374603271,8.099581718444824
1746534323.5660787,-3.592435836791992,-4.177611351013183,8.08617115020752
1746534323.6622345,-3.650888681411743,-4.212071418762206,8.076188087463379
1746534323.790981,-3.6087584495544434,-4.26651906967163,8.01852798461914
1746534323.8555777,-3.5887041091918945,-4.368178367614745,7.981665611267091
1746534323.951258,-3.614764928817749,-4.494800090789794,7.958210468292237
1746534324.0472467,-3.5291996002197266,-4.650938034057616,7.893091678619386
1746534324.1451013,-3.5735671520233154,-4.687345027923583,7.8461365699768075
1746534324.2773864,-3.516836166381836,-4.772356033325194,7.81730079650879
1746534324.3332312,-3.5335426330566406,-4.659638881683349,7.875760078430177
1746534324.4292705,-3.3224501609802246,-4.441838741302489,7.494591236114503
1746534324.526036,-3.399763345718384,-4.464900016784667,7.7803382873535165
1746534324.622081,-3.5178961753845215,-4.402195930480956,7.849683761596681
1746534324.7528012,-3.5147252082824707,-4.516321182250976,7.8472867012023935
1746534324.8141072,-3.5398356914520264,-4.561341762542724,7.861073970794679
1746534324.910227,-3.543907403945923,-4.591022014617919,7.858581542968751
1746534325.0061252,-3.5951876640319824,-4.55379295349121,7.908950328826905
1746534325.1021378,-3.4551661014556885,-4.720547199249267,7.935960292816163
1746534325.2383444,-3.703089714050293,-4.449425220489501,7.932223320007325
1746534325.3158894,-3.5268101692199707,-4.6322641372680655,7.803065776824952
1746534325.390059,-3.504425287246704,-4.7093772888183585,7.682265281677247
1746534325.486044,-3.59873366355896,-4.5295138359069815,7.907580852508546
1746534325.5819912,-3.5689401626586914,-4.468091487884521,8.000767707824707
1746534325.7127233,-3.5441160202026367,-4.431273937225341,8.041422843933105
1746534325.777209,-3.6517159938812256,-4.2834763526916495,8.062938690185547
1746534325.8731675,-3.546586275100708,-4.505115032196044,7.930681228637696
1746534325.9693162,-3.5586915016174316,-4.49635887145996,7.937143325805665
1746534326.0651467,-3.605750799179077,-4.457170963287353,7.906975269317628
1746534326.198298,-3.532517433166504,-4.564208984374999,7.896952152252198
1746534326.254648,-3.5709950923919678,-4.528933525085448,7.898428916931153
1746534326.3531263,-3.571413040161133,-4.560413360595702,7.909820556640626
1746534326.4490921,-3.5162134170532227,-4.641866207122802,7.8946595191955575
1746534326.545104,-3.574394464492798,-4.563889026641845,7.890243530273438
1746534326.6795275,-3.5492963790893555,-4.572702407836913,7.892170429229737
1746534326.7362895,-3.559471607208252,-4.546051502227782,7.90776538848877
1746534326.832238,-3.59832763671875,-4.448011398315429,7.933195590972901
1746534326.9281328,-3.5578625202178955,-4.484281539916991,7.936401367187501
1746534327.0242116,-3.574016809463501,-4.462902545928954,7.9284706115722665
1746534327.1606786,-3.581587076187134,-4.522661209106444,7.944859504699708
1746534327.2161329,-3.550281047821045,-4.58927297592163,7.879431724548341
1746534327.3120239,-3.5634100437164307,-4.602152824401855,7.880414962768556
1746534327.4081147,-3.5419273376464844,-4.661879539489745,7.867980957031251
1746534327.5046992,-3.5349907875061035,-4.62688398361206,7.87709140777588
1746534327.634846,-3.5711023807525635,-4.570709228515624,7.912111282348634
1746534327.6960351,-3.5489258766174316,-4.538072586059569,7.910491943359376
1746534327.7920966,-3.5917513370513916,-4.48084259033203,7.942102909088136
1746534327.8890345,-3.5761706829071045,-4.435558795928954,7.950660705566407
1746534327.9849489,-3.569383382797241,-4.489672660827636,7.952198028564454
1746534328.121198,-3.5761055946350098,-4.460983276367187,7.933429718017579
1746534328.1772676,-3.561938524246216,-4.54292869567871,7.905785560607911
1746534328.2730782,-3.5415573120117188,-4.605185985565185,7.873517036437989
1746534328.3689058,-3.55364990234375,-4.63833999633789,7.877148151397706
1746534328.4650798,-3.528902769088745,-4.665623664855956,7.854537010192872
1746534328.5960217,-3.5509488582611084,-4.655086040496825,7.873381137847901
1746534328.658667,-3.5383005142211914,-4.640676498413085,7.875269412994386
1746534328.756106,-3.553034782409668,-4.617266654968261,7.877439975738526
1746534328.8501186,-3.564558506011963,-4.578850269317626,7.898739814758302
1746534328.9462864,-3.5514721870422363,-4.5642452239990225,7.904458522796632
1746534329.0823388,-3.5582237243652344,-4.548373222351073,7.922446250915528
1746534329.1378083,-3.5713729858398438,-4.546647548675536,7.9109230041503915
1746534329.233798,-3.563063144683838,-4.562543392181396,7.917672634124757
1746534329.332078,-3.5632710456848145,-4.555795192718505,7.912854671478272
1746534329.4258046,-3.5619661808013916,-4.571207523345946,7.909762859344483
1746534329.5566132,-3.5553672313690186,-4.552196979522704,7.898625850677491
1746534329.6178963,-3.564941644668579,-4.552024841308593,7.904032230377198
1746534329.7139227,-3.5468263626098633,-4.576759338378905,7.9049415588378915
1746534329.809846,-3.548250436782837,-4.610637187957763,7.8933095932006845
1746534329.905937,-3.546459197998047,-4.633197307586669,7.88404941558838
1746534330.0422053,-3.544067621231079,-4.643713474273681,7.861272335052491
1746534330.1101232,-3.5506157875061035,-4.638725757598876,7.883370876312257
1746534330.1938078,-3.541656494140625,-4.632854461669921,7.878944396972657
1746534330.2899027,-3.5508666038513184,-4.580256462097167,7.895569324493409
1746534330.387276,-3.5992543697357178,-4.506413936614989,7.9374403953552255
1746534330.5182967,-2.982727289199829,-4.106092453002929,7.66596269607544
1746534330.5789478,-3.6281590461730957,-4.2308931350708,8.25068187713623
1746534330.6750054,-2.903778553009033,-2.9373908042907706,7.409019947052002
1746534330.770933,-3.782862901687622,-3.52172827720642,8.265231132507324
1746534330.8669698,-3.619452476501465,-4.026249885559081,8.217575073242188
1746534331.0036523,-3.703641414642334,-4.512405395507812,8.294015884399414
1746534331.058811,-3.268442153930664,-4.132618904113769,7.833599567413331
1746534331.1559777,-3.6788523197174072,-4.534635066986083,8.012788772583008
1746534331.2518096,-4.042213439941406,-4.565267086029052,7.472533702850343
1746534331.34814,-3.4745774269104004,-4.6444616317749015,7.854311466217042
1746534331.483108,-3.5640652179718018,-4.118237018585204,8.213720321655273
1746534331.539961,-3.5116515159606934,-4.909401416778564,7.903222560882569
1746534331.6361861,-3.9237372875213623,-4.898355484008788,7.507034778594972
1746534331.7320063,-3.5625648498535156,-3.9780120849609366,7.780936717987061
1746534331.8278003,-3.6058461666107178,-4.450033664703368,7.761119842529298
1746534331.9645069,-3.658249616622925,-4.27293825149536,7.978446483612061
1746534332.0208726,-4.074148654937744,-4.500333309173583,8.070237159729004
1746534332.116737,-3.799105405807495,-3.5725042819976798,8.019315719604492
1746534332.2127817,-3.6058294773101807,-4.247986316680907,8.228960990905762
1746534332.3086689,-3.5968213081359863,-4.110726356506347,8.078289031982422
1746534332.4368525,-3.604149580001831,-4.45283555984497,8.06501579284668
1746534332.503313,-3.6407382488250732,-3.8420891761779776,8.085711479187012
1746534332.597306,-3.5977373123168945,-4.032325267791747,8.16552734375
1746534332.692695,-3.735405445098877,-3.8678431510925284,8.29055404663086
1746534332.788881,-3.6963884830474854,-4.032392024993896,8.254961967468262
1746534332.9249613,-3.7110815048217773,-3.6383092403411856,8.231823921203613
1746534332.9806542,-3.982379913330078,-3.9074664115905753,8.046346664428711
1746534333.0766034,-3.6486470699310303,-3.7885684967041007,8.023386001586914
1746534333.17263,-3.6025099754333496,-4.20596694946289,8.176892280578613
1746534333.2687871,-4.147143363952637,-3.8294918537139884,7.6228041648864755
1746534333.3993564,-3.4085099697113037,-3.7655036449432364,8.156582832336426
1746534333.4609406,-3.6065292358398438,-4.102536678314208,8.333930969238281
1746534333.5565946,-3.5737991333007812,-4.113788127899169,8.044095993041992
1746534333.6526656,-3.3895468711853027,-4.74850034713745,8.096345901489258
1746534333.751689,-3.5353713035583496,-4.664743423461913,7.977309226989747
1746534333.8896735,-3.5753581523895264,-3.6595063209533683,7.728838443756104
1746534333.943793,-3.7179296016693115,-4.338693141937255,8.129443168640137
1746534334.0397894,-3.4941964149475098,-5.049152851104735,7.885974884033204
1746534334.133887,-3.5571155548095703,-4.702573299407958,7.899022579193116
1746534334.2308447,-3.568876028060913,-4.439680099487304,7.946751594543458
1746534334.3584027,-3.6035656929016113,-4.63556671142578,7.884167194366456
1746534334.4234686,-3.571861982345581,-4.347993850708007,7.884934425354005
1746534334.5203745,-3.550969123840332,-4.555580615997314,7.90735149383545
1746534334.6156144,-3.556986093521118,-4.413638114929198,7.936603546142579
1746534334.7117631,-3.6073455810546875,-4.3085546493530265,8.018507957458496
1746534334.8449664,-3.601264238357544,-4.02753734588623,8.012619972229004
1746534334.9258666,-3.601003646850586,-4.24493646621704,8.021222114562988
1746534334.9995253,-3.5650010108947754,-4.249219894409179,8.091979026794434
1746534335.0955727,-3.4978253841400146,-4.478068351745605,8.152677536010742
1746534335.1915019,-3.611011028289795,-4.264322757720946,8.052251815795898
1746534335.3192348,-3.683532238006592,-4.005961418151855,8.067170143127441
1746534335.3839364,-3.670017957687378,-3.838653326034545,8.04544734954834
1746534335.4795673,-3.653752565383911,-4.0185580253601065,8.037042617797852
1746534335.5755863,-3.628708600997925,-4.3301753997802725,8.067283630371094
1746534335.670353,-3.5726685523986816,-3.969400167465209,8.0945463180542
1746534335.806743,-3.5616469383239746,-4.307629108428954,8.159417152404785
1746534335.862311,-3.70280122756958,-4.097980499267577,8.050091743469238
1746534335.9584382,-3.5986764430999756,-4.045457363128661,8.07119369506836
1746534336.0572963,-3.6751859188079834,-3.4175965785980216,8.323649406433105
1746534336.1506567,-3.533534526824951,-4.193091392517089,8.120819091796875
1746534336.2857494,-3.6915977001190186,-4.532773494720458,8.047601699829102
1746534336.3455415,-3.6318657398223877,-4.280278682708739,8.257258415222168
1746534336.441343,-3.5553410053253174,-4.546571254730224,8.05537223815918
1746534336.5364976,-3.7027766704559326,-3.896227836608886,8.195213317871094
1746534336.6316211,-3.421884298324585,-4.455118656158446,7.727611541748048
1746534336.7677937,-3.533369779586792,-4.226016044616698,8.065214157104492
1746534336.823357,-3.543452262878418,-4.78338861465454,7.829876422882081
1746534336.9203548,-3.5045619010925293,-4.481793880462646,7.818799495697022
1746534337.01644,-3.4450864791870117,-2.6467249393463126,8.82071590423584
1746534337.1122568,-3.601909875869751,-4.500751018524169,7.920023918151856
1746534337.2430625,-3.5546302795410156,-4.514422416687011,8.231642723083496
1746534337.3042536,-3.638751983642578,-4.010605335235595,7.938513755798341
1746534337.4003832,-3.604870557785034,-4.408273696899413,8.005722045898438
1746534337.4968023,-3.5010509490966797,-4.325191020965575,8.017983436584473
1746534337.5923462,-3.549811601638794,-4.563592910766601,7.785948276519776
1746534337.726554,-3.5227251052856445,-4.489785194396972,7.918891429901124
1746534337.785286,-3.557884693145752,-4.426223278045653,7.942305088043214
1746534337.881248,-3.615924835205078,-4.18304681777954,7.975213527679444
1746534337.978186,-3.6812286376953125,-4.158844470977782,8.107266426086426
1746534338.0741715,-3.5779612064361572,-4.282023429870605,8.050848007202148
1746534338.2015545,-3.5726447105407715,-4.2984910011291495,7.897524356842042
1746534338.267331,-3.5594756603240967,-4.408776283264159,7.975843906402589
1746534338.361063,-3.6056530475616455,-4.439345359802245,7.988867759704591
1746534338.4573636,-3.535691499710083,-4.60090684890747,7.92607593536377
1746534338.553112,-3.625345230102539,-4.458886146545409,7.98762607574463
1746534338.694147,-3.5352284908294678,-4.575915813446044,7.914015769958497
1746534338.7452402,-3.5687694549560547,-4.456930637359618,7.971415519714356
1746534338.84134,-3.608578681945801,-4.377545356750487,7.982322216033936
1746534338.9372222,-3.5498459339141846,-4.4526119232177725,7.989856719970704
1746534339.0340745,-3.5860795974731445,-4.361559867858886,7.996957778930665
1746534339.1648324,-3.586256504058838,-4.397690296173095,7.9854445457458505
1746534339.2260244,-3.555318832397461,-4.449063301086425,7.97115707397461
1746534339.321996,-3.598588705062866,-4.419846057891845,7.971055507659913
1746534339.4181347,-3.554105281829834,-4.505520820617675,7.939183712005616
1746534339.5138416,-3.5545356273651123,-4.529915332794189,7.928020000457765
1746534339.6506786,-3.5901315212249756,-4.4986629486083975,7.93597173690796
1746534339.7184625,-3.5466785430908203,-4.509600639343261,7.933136940002442
1746534339.801943,-3.585331439971924,-4.440057754516601,7.964678287506104
1746534339.898039,-3.5806729793548584,-4.436774253845214,7.970038414001466
1746534339.994032,-3.55771541595459,-4.4511470794677725,7.969101905822755
1746534340.1243892,-3.583324670791626,-4.431467056274413,7.967292308807374
1746534340.187031,-3.551302194595337,-4.486346721649169,7.9574856758117685
1746534340.2830272,-3.573467493057251,-4.503484249114989,7.952503204345704
1746534340.378994,-3.5705158710479736,-4.488356590270995,7.948448181152345
1746534340.475032,-3.5584771633148193,-4.4870567321777335,7.936242103576661
1746534340.6113164,-3.5780701637268066,-4.433137893676757,7.967559814453126
1746534340.6678889,-3.571242094039917,-4.434621810913085,7.985809326171876
1746534340.7647774,-3.579275608062744,-4.430839538574218,7.991839885711671
1746534340.8607738,-3.571885108947754,-4.392578601837157,7.974337100982667
1746534340.9571273,-3.5845799446105957,-4.439608097076415,7.979242801666261
1746534341.0844421,-3.5295958518981934,-4.512898921966552,7.9154372215271005
1746534341.1489377,-3.576768398284912,-4.480398178100585,7.92870330810547
1746534341.244759,-3.5593366622924805,-4.510314464569091,7.92711639404297
1746534341.3407812,-3.547666072845459,-4.489061355590819,7.947550773620606
1746534341.4367037,-3.6039395332336426,-4.4423837661743155,7.945742130279542
1746534341.5711558,-3.533416748046875,-4.472481250762939,7.9548730850219735
1746534341.627972,-3.5862746238708496,-4.462100982666015,7.950483322143556
1746534341.7240899,-3.564666271209717,-4.490731239318847,7.953832626342774
1746534341.81984,-3.534024953842163,-4.5813207626342765,7.932249069213868
1746534341.915835,-3.556905508041382,-4.4266109466552725,7.888797283172608
1746534342.0466852,-3.7466986179351807,-4.693513870239257,8.201638221740723
1746534342.108862,-3.5556206703186035,-4.331603527069091,7.895925045013429
1746534342.205798,-3.6442954540252686,-4.397682189941405,7.978098392486573
1746534342.3018498,-3.5113284587860107,-4.467971324920653,8.047406196594238
1746534342.39764,-3.5855259895324707,-4.434340476989745,7.970746517181397
1746534342.531295,-3.589635133743286,-4.448476791381835,7.960016727447511
1746534342.5896156,-3.5486338138580322,-4.520140647888183,7.91562843322754
1746534342.6855001,-3.5779852867126465,-4.496797084808349,7.94038486480713
1746534342.781583,-3.574983596801758,-4.4660091400146475,7.960572242736817
1746534342.8775468,-3.558140754699707,-4.470008850097655,7.950154781341554
1746534343.004948,-3.570662498474121,-4.4073777198791495,7.930644989013673
1746534343.070544,-3.57570219039917,-4.514046192169189,7.938350677490235
1746534343.167414,-3.550279140472412,-4.500256061553954,7.944866180419923
1746534343.2605202,-3.5815606117248535,-4.463164806365966,7.956070423126222
1746534343.3564887,-3.5587148666381836,-4.514906406402587,7.93071460723877
1746534343.4926963,-3.5537919998168945,-4.467405319213866,7.949625492095948
1746534343.5503514,-3.5915117263793945,-4.41540765762329,7.951529026031495
1746534343.6466582,-3.5478408336639404,-4.455545425415038,7.935448646545411
1746534343.7431128,-3.6053175926208496,-4.478564262390136,7.96696949005127
1746534343.8365092,-3.5534043312072754,-4.4472289085388175,7.929757595062257
1746534343.9673195,-3.4588987827301025,-4.45133876800537,7.8131985664367685
1746534344.0318563,-3.595144271850586,-4.502813816070556,7.961925983428956
1746534344.1276548,-3.533247232437134,-4.538054943084716,7.869259834289552
1746534344.2234907,-3.518950939178467,-4.5928611755371085,7.946604251861573
1746534344.3198373,-3.6104440689086914,-4.402765750885009,7.971569061279298
1746534344.4525988,-3.522257089614868,-4.55052089691162,7.953017234802247
1746534344.5340912,-3.5850424766540527,-4.434953689575194,7.942535877227784
1746534344.6074853,-3.5885651111602783,-4.364083290100097,7.8641371726989755
1746534344.7034135,-3.5425193309783936,-4.569437503814696,7.925523757934571
1746534344.7994576,-3.5862929821014404,-4.434255123138427,7.908940792083741
1746534344.9279587,-3.5538382530212402,-4.50932216644287,7.932960033416749
1746534344.9892411,-3.5446600914001465,-4.523151874542235,7.908421993255616
1746534345.0851517,-3.5883066654205322,-4.438003540039062,7.9802823066711435
1746534345.1841116,-3.5531182289123535,-4.485664844512939,7.96387004852295
1746534345.2813993,-3.5785038471221924,-4.454187870025634,7.9635987281799325
1746534345.4137158,-3.5706446170806885,-4.48511505126953,7.954948902130128
1746534345.4722836,-3.550218105316162,-4.482689380645751,7.947180747985841
1746534345.5683696,-3.5735092163085938,-4.474982261657714,7.937494754791261
1746534345.6643724,-3.5424652099609375,-4.513699054718017,7.935517311096192
1746534345.7601264,-3.5773534774780273,-4.473115921020507,7.94672441482544
1746534345.8875763,-3.554537057876587,-4.515910625457763,7.938801288604737
1746534345.9510753,-3.578367233276367,-4.516885757446288,7.962864875793458
1746534346.0471916,-3.5591542720794678,-4.434954166412353,7.915042400360108
1746534346.1430848,-3.5599117279052734,-4.509946823120116,7.986404895782472
1746534346.2391589,-3.5617759227752686,-4.417132377624511,7.9507083892822275
1746534346.3801692,-3.585773229598999,-4.38998794555664,7.9846253395080575
1746534346.4314992,-3.575892925262451,-4.414892673492431,7.992826938629151
1746534346.5272927,-3.5645864009857178,-4.433125019073485,7.959827423095704
1746534346.6231704,-3.5604825019836426,-4.483131408691405,7.970609664916993
1746534346.7206757,-3.50846791267395,-4.504389286041259,7.86926555633545
1746534346.8479435,-3.51170015335083,-4.505308151245116,7.835393905639649
1746534346.9131224,-3.581437826156616,-4.498799324035644,7.937979221343995
1746534347.0088868,-3.5595412254333496,-4.475888729095458,7.940744876861573
1746534347.1031938,-3.5670340061187744,-4.4257173538208,7.969757556915284
1746534347.199957,-3.5841522216796875,-4.403092861175536,7.98201084136963
1746534347.3374987,-3.5493359565734863,-4.460014343261718,7.95314121246338
1746534347.3932886,-3.5723769664764404,-4.452184200286864,7.965976238250733
1746534347.4889553,-3.557352066040039,-4.489861011505126,7.954876422882081
1746534347.5847518,-3.5741031169891357,-4.485626220703124,7.961360931396485
1746534347.6809456,-3.5770461559295654,-4.435511112213134,7.960502147674561
1746534347.8082864,-3.578218698501587,-4.4573607444763175,7.954084873199464
1746534347.873006,-3.562764883041382,-4.424304008483886,7.946868419647218
1746534347.968933,-3.5520036220550537,-4.479926586151122,7.942232131958009
1746534348.0656807,-3.5831077098846436,-4.4708590507507315,7.948227882385255
1746534348.1615596,-3.5774354934692383,-4.474944591522216,7.966751098632813
1746534348.2953057,-3.5645558834075928,-4.451812744140624,7.966356754302979
1746534348.3538368,-3.5764753818511963,-4.459467887878417,7.9491310119628915
1746534348.4495912,-3.557692050933838,-4.470888137817382,7.959030628204347
1746534348.5458164,-3.5603840351104736,-4.451572895050048,7.957953929901124
1746534348.6428819,-3.5728468894958496,-4.4698824882507315,7.951957225799561
1746534348.7749388,-3.5555906295776367,-4.4981980323791495,7.933224678039552
1746534348.8366723,-3.5632004737854004,-4.554399013519286,7.931940555572511
1746534348.931131,-3.549032211303711,-4.575889110565185,7.928466320037843
1746534349.026836,-3.5640830993652344,-4.525310516357421,7.918096065521241
1746534349.1200776,-3.5467066764831543,-4.527809143066405,7.923344135284425
1746534349.2558904,-3.5661540031433105,-4.511819839477538,7.964060783386231
1746534349.326971,-3.5618138313293457,-4.494359016418456,7.917731761932374
1746534349.4104037,-3.5678181648254395,-4.512199878692626,7.929425716400147
1746534349.506568,-3.546107769012451,-4.521516799926757,7.929687023162843
1746534349.6004014,-3.5851898193359375,-4.4234604835510245,7.980023860931397
1746534349.7317514,-3.6014487743377686,-4.472359180450439,7.966951370239259
1746534349.7954767,-3.5632340908050537,-4.572514533996581,7.934602737426759
1746534349.8914754,-3.607407808303833,-4.555471897125243,7.944641590118409
1746534349.9853706,-3.5320231914520264,-4.6203975677490225,7.909992218017579
1746534350.0814471,-3.565627098083496,-4.5515990257263175,7.922520637512208
1746534350.2176003,-3.562138795852661,-4.524946212768554,7.902616024017335
1746534350.2743397,-3.5365827083587646,-4.52108335494995,7.901960372924806
1746534350.3703427,-3.5799810886383057,-4.536206245422362,7.899291992187501
1746534350.4675736,-3.5530216693878174,-4.626938819885253,7.922507286071778
1746534350.5637093,-3.551034927368164,-4.594226837158202,7.87934160232544
1746534350.6909418,-3.5566184520721436,-4.6092867851257315,7.947270393371583
1746534350.7534106,-3.5587093830108643,-4.538700103759765,7.905649662017823
1746534350.852265,-3.54140567779541,-4.566891193389892,7.927989006042481
1746534350.9482305,-3.545849561691284,-4.595836162567138,7.900299072265626
1746534351.0442977,-3.548931121826172,-4.556807994842528,7.906489849090577
1746534351.182579,-3.557718515396118,-4.529773712158202,7.933269023895265
1746534351.2380297,-3.555274486541748,-4.538014888763427,7.930699348449708
1746534351.3340325,-3.5538651943206787,-4.56127119064331,7.915978908538819
1746534351.428337,-3.5513367652893066,-4.599209308624267,7.897644519805909
1746534351.5243888,-3.5447094440460205,-4.567378520965575,7.916622161865235
1746534351.65185,-3.56618595123291,-4.56789207458496,7.934493064880372
1746534351.7139847,-3.5455634593963623,-4.5339035987853995,7.881124019622804
1746534351.8100948,-3.574812173843384,-4.55359125137329,7.916111946105958
1746534351.9070213,-3.5459632873535156,-4.592395782470702,7.910850048065186
1746534352.003155,-3.5611209869384766,-4.543060302734374,7.920708179473878
1746534352.139426,-3.568371534347534,-4.52221393585205,7.940117835998536
1746534352.19513,-3.5526041984558105,-4.515251159667968,7.93469524383545
1746534352.2910364,-3.5677666664123535,-4.488693237304687,7.944968223571778
1746534352.3871205,-3.569383144378662,-4.513185024261474,7.942706584930421
1746534352.4829695,-3.5592780113220215,-4.51731252670288,7.933021545410157
1746534352.6114733,-3.5622353553771973,-4.498132705688476,7.944562435150147
1746534352.6760428,-3.5461535453796387,-4.517025470733642,7.937910079956056
1746534352.7719207,-3.5610857009887695,-4.493633747100829,7.9548587799072275
1746534352.8678074,-3.5691640377044678,-4.460674285888671,7.961350440979005
1746534352.9647753,-3.558136463165283,-4.493366718292235,7.944328784942628
1746534353.0990536,-3.556091070175171,-4.532616615295409,7.924605369567872
1746534353.1558173,-3.5572690963745117,-4.562453746795653,7.910140991210938
1746534353.2531543,-3.554295301437378,-4.556381702423095,7.909564018249513
1746534353.3487356,-3.5661845207214355,-4.516854286193847,7.9343605041503915
1746534353.445146,-3.5727195739746094,-4.484466075897216,7.9458045959472665
1746534353.5780795,-3.5727391242980957,-4.472197532653808,7.946407318115235
1746534353.637932,-3.5641329288482666,-4.48442506790161,7.949397563934327
1746534353.7356105,-3.575995683670044,-4.490839958190917,7.933930397033692
1746534353.8281238,-3.557048797607422,-4.540020942687987,7.9203152656555185
1746534353.9239414,-3.5425896644592285,-4.57903242111206,7.906782627105714
1746534354.0599513,-3.5613341331481934,-4.544064998626708,7.923584461212159
1746534354.1378164,-3.551740884780884,-4.532095432281493,7.927986145019532
1746534354.2137008,-3.5679023265838623,-4.4981369972228995,7.939317703247071
1746534354.3096135,-3.556334972381592,-4.5270605087280265,7.935328483581544
1746534354.4055998,-3.552469491958618,-4.537549495697021,7.928146362304688
1746534354.5368052,-3.564044713973999,-4.532375812530517,7.926525592803956
1746534354.5976043,-3.5476059913635254,-4.581254005432128,7.90217685699463
1746534354.6934433,-3.57254958152771,-4.565193653106689,7.916260242462159
1746534354.7897906,-3.546393871307373,-4.528443813323974,7.938339710235597
1746534354.886742,-3.6170530319213867,-4.532853603363036,7.967008113861085
1746534355.0199292,-3.4777791500091553,-4.435261726379394,7.895169734954835
1746534355.076413,-3.5538597106933594,-4.46894884109497,7.9531216621398935
1746534355.1725008,-3.6011033058166504,-4.144052505493163,7.91356372833252
1746534355.268601,-3.6062724590301514,-4.553020954132079,7.988128662109376
1746534355.364317,-3.5530200004577637,-4.551095008850097,7.913256168365479
1746534355.4956226,-3.583195686340332,-4.568603515624999,7.947627544403077
1746534355.5582356,-3.5150821208953857,-4.548201084136962,7.906949043273927
1746534355.6550617,-3.5721802711486816,-4.5158395767211905,7.946476936340333
1746534355.7502286,-3.5741515159606934,-4.503966808319091,7.9750757217407235
1746534355.8463705,-3.545948028564453,-4.448961257934569,7.954509258270265
1746534355.9846075,-3.5626351833343506,-4.473945140838622,7.950672149658204
1746534356.0391896,-3.553173303604126,-4.527496337890624,7.917520999908448
1746534356.1371276,-3.54801607131958,-4.578933715820312,7.9060659408569345
1746534356.23145,-3.5520260334014893,-4.543258190155028,7.9229140281677255
1746534356.3254452,-3.5500845909118652,-4.517254829406737,7.93032455444336
1746534356.4560332,-3.554917812347412,-4.499140739440917,7.941993236541749
1746534356.517334,-3.549459218978882,-4.53288698196411,7.92199468612671
1746534356.616343,-3.5400891304016113,-4.553071975708007,7.923355579376222
1746534356.7123058,-3.5564980506896973,-4.52467393875122,7.925683498382569
1746534356.8084466,-3.5520544052124023,-4.5219664573669425,7.9372854232788095
1746534356.9423382,-3.5565497875213623,-4.5149850845336905,7.92646074295044
1746534356.9991193,-3.541259765625,-4.544623851776122,7.894696712493897
1746534357.0962665,-3.5631346702575684,-4.596277713775634,7.929965019226075
1746534357.1920128,-3.570425033569336,-4.525784969329833,7.9123854637146005
1746534357.2883093,-3.524773120880127,-4.516365528106689,7.920546054840089
1746534357.4156103,-3.5431630611419678,-4.547978878021239,7.920388698577882
1746534357.4803298,-3.6114919185638428,-4.444463253021239,7.9093289375305185
1746534357.5759566,-3.608301877975464,-4.656853199005126,7.734087944030763
1746534357.6720214,-3.5138278007507324,-4.422470569610595,7.973834514617921
1746534357.7684186,-3.537702798843384,-4.659270763397216,7.87207841873169
1746534357.901988,-3.5470876693725586,-4.489156246185302,7.927386760711671
1746534357.9607387,-3.5551939010620117,-4.544981956481933,7.926724433898927
1746534358.056845,-3.5570294857025146,-4.548454761505126,7.922039508819581
1746534358.150903,-3.549945831298828,-4.5571532249450675,7.916770935058595
1746534358.247949,-3.5484066009521484,-4.546047687530517,7.932429790496827
1746534358.3768575,-3.423950672149658,-4.642467021942138,7.878647327423097
1746534358.4398258,-4.173562049865723,-4.242410659790038,8.3540620803833
1746534358.5376272,-4.034027099609375,-4.661966323852538,9.296355247497559
1746534358.6321135,-4.023752212524414,-4.177162170410155,8.697295188903809
1746534358.7282147,-3.776242733001709,-3.6229074001312247,8.642253875732422
1746534358.8640466,-3.6756703853607178,-4.433834552764892,9.244735717773438
1746534358.9329753,-4.220623970031738,-4.552395343780517,9.343453407287598
1746534359.0165792,-4.89019775390625,-6.1364965438842765,10.584299087524414
1746534359.1126842,-3.9840755462646484,-5.2454514503478995,9.240947723388672
1746534359.2090528,-2.5068395137786865,-2.704883337020873,8.471210479736328
1746534359.3364139,-3.5396788120269775,-2.58740210533142,8.621683120727539
1746534359.400523,-4.184605121612549,-5.485625267028808,8.204544067382812
1746534359.4996367,-3.3219738006591797,-2.3866086006164546,4.093716144561768
1746534359.591938,-7.695755958557129,-2.1946403980255123,5.184134483337402
1746534359.6877337,-5.732880115509033,-5.51046323776245,8.096038818359375
1746534359.8237345,-8.316134452819824,-5.177141189575194,9.55237102508545
1746534359.8795414,-5.171747207641602,-3.5823533535003658,4.9615278244018555
1746534359.9787316,-2.958038091659546,0.7356272339820865,2.7415614128112793
1746534360.0745697,-17.924177169799805,-14.85630989074707,6.992954254150392
1746534360.1702662,-7.312687397003174,-5.4239444732666,11.064949989318848
1746534360.2979183,-6.80352783203125,-3.6757247447967516,9.172746658325195
1746534360.3622448,-3.30727219581604,-3.73636770248413,7.111236572265626
1746534360.4582462,-3.3673837184906006,-1.19204032421112,6.096100330352783
1746534360.5551257,-4.785783290863037,-1.575579047203063,7.219907760620117
1746534360.6509225,-4.727931022644043,-2.9449539184570304,8.454455375671387
1746534360.7890344,-5.0054216384887695,-4.423467159271239,8.100203514099121
1746534360.8403494,-4.797386169433594,-5.09255027770996,7.564124584197999
1746534360.9375174,-4.419151782989502,-5.174767494201659,7.52629852294922
1746534361.0358453,-4.380372524261475,-4.507483005523681,7.3975539207458505
1746534361.1294827,-4.396365165710449,-4.766994953155517,7.26334047317505
1746534361.2602205,-5.6439642906188965,-5.419893741607665,7.617084503173829
1746534361.3213465,-3.842658519744873,-4.13219404220581,7.169255733489991
1746534361.4170456,-3.711698532104492,-5.197586059570312,6.261449337005616
1746534361.5140994,-3.622117757797241,-6.315832614898681,7.029165744781495
1746534361.6111264,-4.858617782592773,-6.086076736450194,6.6573123931884775
1746534361.744277,-4.8637566566467285,-4.793394088745116,7.07198715209961
1746534361.8033957,-4.340440273284912,-5.668935775756835,9.456426620483398
1746534361.8970542,-4.574402332305908,-4.578764915466308,7.588885784149171
1746534361.9929109,-3.618830680847168,-5.43500518798828,6.303724765777589
1746534362.088948,-4.415910720825195,-4.545355319976806,7.803085327148438
1746534362.2195976,-3.9144845008850098,-4.833419322967528,7.354510307312013
1746534362.2840462,-3.1809189319610596,-6.330034732818603,7.084992408752442
1746534362.377802,-5.883522033691406,-2.223540782928466,7.676541328430176
1746534362.4751384,-6.307422161102295,-3.761732101440429,6.92260503768921
1746534362.5711234,-5.054625034332275,-5.3956518173217765,6.601593494415284
1746534362.7043025,-5.573010444641113,-4.384499549865722,6.35119390487671
1746534362.7630906,-6.149459362030029,-4.331374645233153,6.68264389038086
1746534362.8589566,-5.736045837402344,-4.752480506896972,6.5809292793273935
1746534362.9551373,-4.055222511291504,-4.811473846435546,7.976640701293946
1746534363.0508366,-3.9413344860076904,-6.080317020416259,8.845763206481934
1746534363.186247,-4.119533538818359,-5.185475349426269,7.198168277740479
1746534363.2446861,-4.919882774353027,-3.278326988220214,7.110798358917236
1746534363.3391287,-3.8878562450408936,-3.2631258964538565,7.353322982788086
1746534363.4377584,-3.8392765522003174,-2.198176383972167,7.615611553192139
1746534363.5323477,-3.247634172439575,-4.76177167892456,8.636451721191406
1746534363.6649141,-3.794743299484253,-2.5303645133972155,9.602648735046387
1746534363.7456133,-4.191521167755127,-1.5444551706314074,10.051289558410645
1746534363.8196464,-4.935822486877441,-6.815588951110839,6.625227451324464
1746534363.9156916,-2.09557843208313,-2.863544225692748,7.4475555419921875
1746534364.011592,-2.751906394958496,-3.9511349201202384,5.751904487609864
1746534364.1395037,-3.5853829383850098,-6.121912956237792,7.769807815551759
1746534364.2034993,-2.714536666870117,-4.464077472686767,10.057699203491211
1746534364.2995045,-3.846283197402954,-3.5579245090484606,10.980111122131348
1746534364.3954825,-2.0529000759124756,-1.8950458765029896,9.941265106201172
1746534364.4918451,-2.6981284618377686,-3.3129146099090567,8.434476852416992
1746534364.6277924,-1.6755071878433228,-2.419287681579589,7.704517364501953
1746534364.6835165,-1.956243872642517,-3.8873722553253165,8.755549430847168
1746534364.7795656,-4.603736877441406,-2.1251733303070055,9.948859214782715
1746534364.8756344,-5.018269062042236,-3.033485889434813,9.96926212310791
1746534364.9717543,-2.6555211544036865,-4.122792720794677,7.451622486114503
1746534365.1019619,-3.288686513900757,-2.982336997985839,7.949267387390137
1746534365.1634212,-2.2122690677642822,-3.727352857589721,7.42361879348755
1746534365.2602816,-3.543102264404297,-5.137201309204101,8.4839506149292
1746534365.3564365,-4.330066680908203,-4.205340385437011,9.298288345336914
1746534365.45216,-4.899415969848633,-4.792655944824218,10.046050071716309
1746534365.5886233,-2.758977174758911,-1.9437664747238148,9.394909858703613
1746534365.6446905,-3.5870323181152344,-2.8212852478027335,7.044124126434326
1746534365.740226,-1.9800626039505005,-2.0653860569000235,7.730325698852539
1746534365.8362093,-2.5024337768554688,-3.1645586490631095,8.150774955749512
1746534365.9349508,-3.8636162281036377,-4.10253620147705,9.89029312133789
1746534366.0628629,-4.30107307434082,-5.034177303314208,8.646406173706055
1746534366.1260042,-2.8195033073425293,-4.9882235527038565,8.19807243347168
1746534366.2212136,-3.93894362449646,-4.711692810058593,7.904155254364015
1746534366.3172455,-2.286062479019165,-3.1585040092468253,8.351550102233887
1746534366.412,-1.5086398124694824,-4.2570786476135245,7.233355045318604
1746534366.5518627,-2.82177734375,-5.134213924407958,9.992378234863281
1746534366.60494,-3.457819938659668,-4.707804679870605,9.552850723266602
1746534366.7009208,-4.304066181182861,-4.546948909759521,8.556352615356445
1746534366.7970827,-4.150730133056641,-3.6878364086151114,7.835592269897462
1746534366.8928585,-3.8365530967712402,-3.300219535827636,7.135921955108643
1746534367.021537,-1.924980878829956,-3.325030803680419,7.108143329620361
1746534367.0859897,-2.8850743770599365,-4.699045181274413,8.295903205871582
1746534367.1821094,-4.480670928955078,-5.392077445983886,9.05227279663086
1746534367.2778058,-4.616153717041016,-6.704243659973144,7.4686551094055185
1746534367.3739433,-1.994920253753662,-4.421186447143554,7.580565929412843
1746534367.5076072,-2.6299290657043457,-5.105674743652343,6.481126308441163
1746534367.5659635,-0.941487193107605,-4.530191421508788,6.127264976501466
1746534367.6617804,-0.9237511157989502,-3.9289019107818595,9.01902961730957
1746534367.7577488,-3.5142691135406494,-5.608997344970702,9.997807502746582
1746534367.8539386,-2.5465500354766846,-4.393766403198241,7.835997104644776
1746534367.984471,-1.7143133878707886,-3.971227407455443,9.264521598815918
1746534368.045549,-2.597196102142334,-2.953228473663329,8.146790504455566
1746534368.1416752,-1.223983883857727,-2.5615966320037833,7.596951007843018
1746534368.237566,-3.1906728744506836,-4.255692958831786,8.301911354064941
1746534368.3346422,-4.558769226074219,-3.0057320594787584,9.852222442626953
1746534368.4681811,-4.837713241577148,-4.907244682312011,8.897001266479492
1746534368.5389524,-2.2063820362091064,-4.867375373840331,7.730950832366944
1746534368.6229432,-3.3640551567077637,-5.684546947479247,6.798792362213136
1746534368.718397,-1.6991221904754639,-4.663009643554687,7.711655616760255
1746534368.8145986,-2.8758761882781982,-4.821256160736083,7.804927349090577
1746534368.9455037,-3.4485440254211426,-6.1210618019103995,9.051484107971191
1746534369.0077028,-2.8930764198303223,-6.37336254119873,7.94352674484253
1746534369.1033611,-3.2860777378082275,-3.5700669288635245,6.232629776000977
1746534369.1996174,-3.3585939407348633,-6.335505485534667,6.405505180358888
1746534369.2962976,-3.711416244506836,-5.069813728332519,6.548948287963868
1746534369.4305708,-3.1274967193603516,-3.632863759994506,7.461237907409669
1746534369.4863153,-4.299036979675293,-4.046362876892089,9.27874755859375
1746534369.5824664,-4.58388614654541,-5.0438194274902335,9.052087783813477
1746534369.6782522,-5.181081771850586,-5.449880599975585,7.887793540954591
1746534369.7743154,-2.4999027252197266,-4.514976978302001,6.706861972808839
1746534369.9048538,-2.940734624862671,-4.286239147186278,7.456472396850587
1746534369.9662266,-2.649538278579712,-4.208287239074706,6.806154251098634
1746534370.0632067,-2.7709381580352783,-4.547105312347411,6.961716175079347
1746534370.159267,-4.289939880371094,-5.485781669616698,9.767065048217773
1746534370.25513,-4.416375637054443,-5.499877452850341,8.095032691955566
1746534370.3918805,-5.4186811447143555,-3.8695356845855704,8.630661010742188
1746534370.4481022,-2.8056578636169434,-3.5070757865905753,9.065156936645508
1746534370.544103,-3.3181910514831543,-4.561144351959228,8.02642822265625
1746534370.6402223,-2.8879544734954834,-4.882657527923583,7.989957809448243
1746534370.7359726,-1.599739909172058,-3.5144569873809806,6.948728084564209
1746534370.8684251,-1.871911883354187,-4.667475700378417,6.99586057662964
1746534370.9290733,-4.691745758056641,-5.197700977325439,10.430774688720703
1746534371.025862,-5.460966110229492,-5.998078823089599,7.387110233306886
1746534371.1188827,-3.042288064956665,-4.107943058013915,6.8417019844055185
1746534371.2150288,-3.236276388168335,-6.02884292602539,8.588438034057617
1746534371.3512874,-1.335153579711914,-7.520885467529297,3.2468981742858896
1746534371.410305,-3.543840169906616,-3.8963398933410636,6.969120979309083
1746534371.5056462,-4.2624287605285645,-3.0940864086151114,8.449796676635742
1746534371.602445,-0.4094092845916748,-5.880079269409179,8.799354553222656
1746534371.697706,-3.5907680988311768,-3.985837697982787,6.016200542449952
1746534371.825405,-2.1503138542175293,-2.580024003982543,8.314351081848145
1746534371.8897505,-0.6605595946311951,-3.221349000930785,10.14688777923584
1746534371.9858267,-4.117215633392334,-5.4223055839538565,9.22122859954834
1746534372.081601,-4.663933753967285,-4.696865558624267,8.03968620300293
1746534372.1777349,-3.985029697418213,-3.8612337112426744,10.442831039428711
1746534372.3116438,-4.111168384552002,-5.13148546218872,7.670906066894532
1746534372.3696215,-5.655628681182861,-4.751507282257079,7.873847007751466
1746534372.4655664,-2.5488121509552,-5.942926406860351,8.59904956817627
1746534372.561629,-3.587547540664673,-5.671358108520507,8.501693725585938
1746534372.6574967,-5.672126293182373,-4.331554889678954,8.546051025390625
1746534372.7850385,-2.3579375743865967,-5.752395629882812,9.257071495056152
1746534372.8494263,-2.647773027420044,-4.838606357574462,9.661697387695312
1746534372.9465783,-2.230316162109375,-4.271237850189207,11.042966842651367
1746534373.0423212,-2.2753119468688965,-6.199966430664062,9.781476974487305
1746534373.136641,-1.9649416208267212,-6.019151210784911,8.999804496765137
1746534373.2755554,-1.8474434614181519,-2.3556790351867667,7.350423336029053
1746534373.3559592,-1.755938172340393,-5.174859046936034,7.288222789764405
1746534373.4256399,-0.5860616564750671,-4.685620784759521,7.433430194854737
1746534373.522419,0.564048171043396,-5.2712059020996085,8.046167373657227
1746534373.6187198,-1.8302334547042847,-6.297732353210448,10.14321231842041
1746534373.7460558,-4.301560401916504,-4.609268665313719,11.036245346069336
1746534373.8103552,-2.935194492340088,-6.577563285827636,9.728523254394531
1746534373.9061687,-1.0567541122436523,-4.971524238586425,9.149292945861816
1746534374.0023494,-4.576310157775879,-3.6146843433380114,9.416234970092773
1746534374.0982463,-0.602364182472229,-3.1209859848022448,9.250528335571289
1746534374.231475,-0.3174048662185669,-4.022307395935058,9.009391784667969
1746534374.288722,-2.7293195724487305,-6.034101486206054,9.36429214477539
1746534374.3872283,-1.8488824367523193,-7.026651382446288,9.178400039672852
1746534374.4832423,-1.9314031600952148,-5.801719665527343,8.988739013671875
1746534374.5793068,-1.8363356590270996,-2.232301473617553,8.926650047302246
1746534374.7066202,0.08017508685588837,-4.024138927459716,7.714767456054688
1746534374.7711785,-0.3660605251789093,-4.951097011566161,9.248637199401855
1746534374.8670478,2.0319645404815674,-2.3298940658569327,8.27487564086914
1746534374.9631755,3.725971221923828,-3.4301993846893297,10.163531303405762
1746534375.0591097,3.579893112182617,-3.8213157653808576,14.694957733154297
1746534375.1922035,17.203187942504883,-10.153593063354489,28.496809005737305
1746534375.2509108,-1.6195281744003296,3.1839921474456805,16.23666000366211
1746534375.3469543,1.1038744449615479,-5.467931270599364,7.661852836608888
1746534375.4429138,0.4215364456176758,-3.378995656967162,6.543889999389648
1746534375.540001,-0.8405366539955139,-2.600773811340331,6.707956790924072
1746534375.6723287,1.80464768409729,-1.6779990196228023,4.530000686645508
1746534375.7336001,1.8922700881958008,-1.804270505905151,3.3925235271453857
1746534375.8280883,1.9875719547271729,-2.5508115291595455,5.119318008422852
1746534375.9238846,1.5643486976623535,-1.1800818443298335,3.33744740486145
1746534376.0199614,2.8592681884765625,-2.270156383514404,3.2597472667694096
1746534376.1530426,-1.797942042350769,-3.5279061794280997,7.92804479598999
1746534376.2119033,-2.2116146087646484,-3.4134695529937735,8.250106811523438
1746534376.3077188,-3.1756772994995117,-2.7921066284179674,10.79620361328125
1746534376.4037728,-4.846269607543945,-7.130811691284178,13.313179969787598
1746534376.4996264,-3.9413695335388184,-5.451975822448729,12.520698547363281
1746534376.6274524,-4.282633304595947,-4.912338256835936,13.992842674255371
1746534376.6916833,-2.333405017852783,-4.556291103363036,9.20009708404541
1746534376.7877944,-3.50535249710083,-4.840553283691405,9.345782279968262
1746534376.8836362,-2.785700798034668,-3.339893341064452,9.832076072692871
1746534376.980154,-0.1659003347158432,-4.069875717163085,8.078629493713379
1746534377.1158688,-0.028196260333061218,-2.169509410858154,5.218735218048096
1746534377.1726973,-1.5556550025939941,-0.9518004059791556,7.070499420166016
1746534377.2684839,-3.4177095890045166,-1.821240544319152,7.326313495635986
1746534377.3644428,-0.29220080375671387,-2.626785993576049,6.259943008422852
1746534377.4602935,-1.8821953535079956,-2.914114236831664,7.501321315765381
1746534377.587955,0.001984819769859314,-1.877025961875915,3.768814563751221
1746534377.6522927,-0.4272945523262024,-2.445456266403198,4.79266357421875
1746534377.74824,-4.91464900970459,-2.162291765213012,8.690682411193848
1746534377.8441741,1.069057822227478,-2.433825254440307,1.8460302352905276
1746534377.9404163,-4.445270538330078,-0.6919540166854848,7.708176136016846
1746534378.0813057,-3.9516165256500244,-4.524782180786132,8.462592124938965
1746534378.1504526,-6.603602886199951,-5.441682338714599,10.636357307434082
1746534378.2315376,-4.820966720581055,-7.163646697998045,10.916011810302734
1746534378.3253732,-8.38364315032959,-11.81650924682617,19.500072479248047
1746534378.421371,-7.999927520751953,-13.205351829528807,16.572416305541992
1746534378.5488825,-8.345685005187988,-5.974394798278807,12.150606155395508
1746534378.6131213,-7.113549709320068,-5.443375587463377,14.775996208190918
1746534378.7089853,-2.4718456268310547,-2.944205045700073,3.9049005508422856
1746534378.8050742,-4.342085838317871,-6.984234809875487,8.318238258361816
1746534378.900928,-5.283853530883789,-2.772157669067382,7.138174533843994
1746534379.0375347,-3.713590145111084,-1.6919255256652823,7.729259967803955
1746534379.0930223,-1.6270745992660522,-2.144631147384643,4.756189346313477
1746534379.1890285,-2.3398540019989014,-2.029799938201904,3.5043969154357915
1746534379.2860093,0.9261578321456909,-1.6915612220764158,2.3762712478637695
1746534379.3819823,-0.8892993927001953,-2.8248503208160396,4.945829391479492
1746534379.5102336,-1.2381993532180786,-5.116341114044189,7.9118390083313
1746534379.5737088,-7.544771194458008,-5.464515209197996,12.86860466003418
1746534379.6696362,-6.424016952514648,-7.804267406463621,13.48384761810303
1746534379.7656922,-8.635196685791016,-11.762814521789549,16.641231536865234
1746534379.861639,-7.564952850341797,-13.234801292419432,16.65033531188965
1746534379.995254,-5.826874256134033,-10.720829010009764,13.367753982543947
1746534380.0535302,-6.37207555770874,-6.681463241577147,14.085505485534668
1746534380.1495154,-3.5684845447540283,-9.72667598724365,10.990505218505861
1746534380.245552,-4.7800517082214355,-5.188323020935057,12.572311401367188
1746534380.3415756,-3.3213298320770264,-2.655819177627562,9.083133697509766
1746534380.477335,-4.351688861846924,-2.5671200752258287,11.020724296569824
1746534380.5335505,-2.011237382888794,-1.109181284904479,7.246252059936523
1746534380.6297863,-0.2111125886440277,-0.37138551473617504,4.141914367675781
1746534380.7256691,-3.3678927421569824,-2.808363437652587,8.940226554870605
1746534380.8218296,3.353761911392212,-2.0760233402252193,3.0638353824615483
1746534380.957968,0.9566693305969238,-2.1525619029998775,3.6518206596374516
1746534381.0137165,2.153794527053833,-1.035070657730102,3.2531697750091553
1746534381.1094384,3.73746657371521,-1.8146800994873045,2.434979677200318
1746534381.2055442,0.5608171224594116,-1.1328665018081658,5.89802360534668
1746534381.3014202,-0.28396278619766235,-2.3335983753204337,5.577780246734619
1746534381.4322953,-1.961140513420105,-3.4893493652343737,9.539705276489258
1746534381.4944026,-0.45435208082199097,-6.3139009475708,8.448100090026855
1746534381.5896401,-2.2586965560913086,-1.7599769830703724,9.713603019714355
1746534381.686128,-3.9067575931549072,-3.6224637031555162,12.054625511169434
1746534381.783412,-2.205660343170166,-4.208935737609862,9.922504425048828
1746534381.9165983,-3.7686843872070312,-5.349842071533201,11.493640899658203
1746534381.975679,-3.1033847332000732,-6.6973037719726545,11.587886810302734
1746534382.0712867,-5.258840084075928,-6.909735202789305,15.3652982711792
1746534382.1673055,-5.601627826690674,-7.739949703216551,15.8269100189209
1746534382.263686,-5.745166778564453,-6.965553760528563,14.5123872756958
1746534382.3908179,-2.918281078338623,-8.244296073913572,11.839715003967287
1746534382.4554338,-3.6549148559570312,-3.714650154113768,12.106410026550293
1746534382.551664,-2.737813711166382,-4.275110244750975,10.994091033935547
1746534382.647203,-4.30426549911499,-8.705186843872069,15.224186897277834
1746534382.7430832,-2.2963531017303467,-4.735110282897947,11.631528854370117
1746534382.8810568,-2.4057083129882812,-7.035624504089355,10.622632026672363
1746534382.9621873,-4.159729957580566,-7.076750755310057,13.337278366088867
1746534383.0320516,-5.541648864746094,-3.4625101089477526,12.646198272705078
1746534383.1296508,-6.358255386352539,-6.067744255065916,15.26132869720459
1746534383.2242103,-2.721065044403076,-7.767008781433104,11.560882568359377
1746534383.3516607,-5.052834987640381,-6.671279907226561,14.917356491088867
1746534383.4163928,-8.36115550994873,-5.871358871459959,17.209692001342773
1746534383.5118144,-4.549773216247559,-7.432711124420164,11.04216003417969
1746534383.6079452,-3.1926980018615723,-5.178495883941649,11.052729606628418
1746534383.70369,-3.9701452255249023,-6.957347869873046,10.114018440246582
1746534383.8401458,-4.095678329467773,-5.491466045379637,12.063666343688965
1746534383.8956568,-7.00620698928833,-4.136263847351072,11.793964385986328
1746534383.9923496,-3.079054355621338,-4.410337448120116,9.913346290588379
1746534384.088549,-4.213330268859863,-2.687037706375121,8.736651420593262
1746534384.1846178,-5.029540538787842,-1.371314525604247,9.813668251037598
1746534384.3122327,-1.7284936904907227,-2.9524347782135,8.779123306274414
1746534384.3766508,-5.347878932952881,-4.722471237182616,9.128626823425293
1746534384.4729276,-5.923641681671143,-4.953347206115722,9.682560920715332
1746534384.5685492,-1.373280644416809,-2.832623004913329,6.997930526733398
1746534384.6645339,-6.782176971435547,-2.9053924083709703,12.151799201965332
1746534384.7978287,-5.835600852966309,-2.4118766784667955,11.957134246826172
1746534384.856499,-2.1570112705230713,-5.685688972473143,12.476825714111328
1746534384.9533877,-1.463911533355713,-5.390044212341307,13.117288589477539
1746534385.0494258,-4.353675365447998,-3.820111513137816,11.436620712280273
1746534385.1453876,-4.084437370300293,-2.7313961982727037,9.489336967468262
1746534385.2748933,-2.037992477416992,-2.753875494003295,8.810223579406738
1746534385.3372517,-2.5221800804138184,-4.344590187072753,6.696316719055177
1746534385.43359,-0.8745630383491516,-3.3508658409118643,6.350024700164795
1746534385.5314028,-1.5999517440795898,-2.9307992458343497,8.563460350036621
1746534385.626335,-3.6153929233551025,-3.34311270713806,9.670873641967773
1746534385.759477,-4.04233455657959,-3.718621253967284,11.739840507507324
1746534385.8181927,-2.744412899017334,-2.9934616088867174,10.235783576965332
1746534385.9141712,-2.587937593460083,-4.6754441261291495,10.039725303649902
1746534386.0100822,-1.137619972229004,-4.466109752655028,9.821978569030762
1746534386.1060903,-1.5639091730117798,-3.4820320606231676,10.800603866577148
1746534386.2337637,-0.15961572527885437,-2.459218740463256,7.000951766967773
1746534386.2980585,-3.2835192680358887,-7.0308656692504865,11.456949234008789
1746534386.3938727,-1.5301483869552612,-1.6792002916336048,8.924914360046387
1746534386.4924767,-5.338906764984131,-9.92881107330322,16.384117126464844
1746534386.5859587,-6.9379777908325195,-6.419417858123777,18.6232967376709
1746534386.7192807,-4.555978298187256,-6.632395744323729,12.262116432189941
1746534386.7777913,-3.609637498855591,-4.214385032653807,12.735485076904297
1746534386.8739207,-1.781661033630371,-4.9280591011047346,11.257537841796875
1746534386.969752,-4.6163105964660645,-2.9663863182067853,12.783125877380371
1746534387.0660217,0.8728919625282288,-0.3945502936840051,5.166234493255615
1746534387.1943305,1.7964619398117065,-1.0070850849151605,4.860748767852783
1746534387.259142,4.82501220703125,1.7943391799926756,-2.556783437728882
1746534387.3549078,2.4098753929138184,0.7359624505043031,1.2399598360061646
1746534387.4508777,-2.691502571105957,-1.2310609817504874,7.153809547424316
1746534387.5467873,-1.975550651550293,-4.053344726562499,8.510822296142578
1746534387.6850433,-3.9972174167633057,-3.6755547523498517,12.74057674407959
1746534387.7558196,-1.7010817527770996,-3.5498905181884752,10.304174423217773
1746534387.8347158,-4.507877826690674,-4.424606800079344,15.48288345336914
1746534387.9308121,-6.198155879974365,-8.663783073425291,18.11809730529785
1746534388.0286548,-4.1994709968566895,-5.024656772613524,13.955673217773438
1746534388.1541312,-5.223443031311035,-9.045911788940428,15.243073463439943
1746534388.2186966,-1.7488877773284912,-2.900550365447997,7.488100528717041
1746534388.3152223,0.5170578956604004,-0.18575333058834023,4.314258575439453
1746534388.410348,1.9012154340744019,-0.2619382739067074,3.0510950088500977
1746534388.5066257,1.2703347206115723,-1.5372686386108392,4.606395721435547
1746534388.642796,1.0866262912750244,0.2264560312032702,1.9334731101989746
1746534388.6989894,0.8012714385986328,-2.8609838485717765,6.690756797790527
1746534388.795512,0.6029098033905029,-2.0478858947753897,6.197103977203369
1746534388.8921244,-2.805349349975586,-4.710908412933348,15.051013946533203
1746534388.988369,-4.633171081542969,-7.844509601593016,16.702951431274414
1746534389.116229,-3.5000035762786865,-5.9634523391723615,16.53101348876953
1746534389.1805573,-2.8280773162841797,-5.286376953124998,11.512847900390625
1746534389.2762861,-0.12799805402755737,-2.210918903350829,8.847736358642578
1746534389.3723388,-2.199270725250244,-4.70548629760742,13.039918899536133
1746534389.4680593,-1.3657482862472534,-2.239839792251586,8.666374206542969
1746534389.6013672,3.5235443115234375,2.8138463497161865,-0.6674979925155643
1746534389.660206,0.09080637991428375,-2.070399522781371,6.679258346557617
1746534389.7563558,0.007006168365478516,-4.1110825538635245,9.201300621032715
1746534389.8521278,-2.0012593269348145,-4.964725971221922,10.893683433532715
1746534389.9482741,-1.3251819610595703,-6.167308807373045,13.225818634033203
1746534390.0757039,-3.9076638221740723,-5.776550292968748,13.237258911132812
1746534390.140301,-2.1825602054595947,-4.491471290588378,9.574471473693848
1746534390.2359924,1.3469645977020264,-2.513519525527953,5.791803359985352
1746534390.332676,-1.2338119745254517,-4.06258726119995,9.578530311584473
1746534390.4296947,-2.0721774101257324,-3.616456031799315,11.482748985290527
1746534390.5643055,-1.2623839378356934,-3.4572870731353746,10.442790031433105
1746534390.6200244,1.416104793548584,-1.7579144239425648,8.793996810913086
1746534390.716864,-1.5442426204681396,-3.281920194625853,10.094134330749512
1746534390.8129795,-1.6771125793457031,-4.749121665954588,11.695205688476562
1746534390.9096801,-0.1753421127796173,-3.978145599365233,10.536039352416992
1746534391.037844,-2.573718547821045,-4.381390571594237,8.767375946044922
1746534391.1016972,1.2804864645004272,-1.4306060075759879,7.841858386993408
1746534391.1977537,2.823885679244995,1.3658345937728884,2.3575849533081055
1746534391.2936623,-0.7236160635948181,-1.8327913284301747,8.846582412719727
1746534391.3897579,-0.7750731706619263,-3.0908091068267813,7.999619960784912
1746534391.5228848,-3.3300793170928955,-6.029294013977049,11.834656715393066
1746534391.5815418,-1.7113724946975708,-4.431832313537597,8.966951370239258
1746534391.6775026,-2.5948500633239746,-3.910364866256713,8.639164924621582
1746534391.7735064,-2.596268653869629,-3.331951379776,8.300321578979492
1746534391.8696089,0.6098472476005554,-0.5860167741775508,3.614501714706421
1746534391.9971917,0.011101961135864258,-3.853428125381469,5.443626403808595
1746534392.0616672,-5.547408580780029,-7.871000766754149,15.010313034057619
1746534392.1575732,-3.2026209831237793,-4.474945545196532,8.096646308898926
1746534392.253613,-0.14837944507598877,-1.688653945922851,5.15725564956665
1746534392.3494265,-2.824090003967285,-3.4443256855010977,8.244473457336426
1746534392.482898,-2.13019061088562,-2.951923608779906,10.229493141174316
1746534392.5630622,-5.058647155761719,-4.735409736633299,13.591643333435059
1746534392.6374073,-2.1765623092651367,-3.6500222682952868,11.30715274810791
1746534392.7332342,-1.4032366275787354,-2.1122329235076895,8.095355987548828
1746534392.8294625,-2.168840169906616,-2.5366551876068106,6.674891471862793
1746534392.9653356,-2.373140335083008,-2.3261022567749015,8.97870922088623
1746534393.0220459,-2.3805408477783203,-2.9106941223144522,8.826034545898438
1746534393.1174407,-3.4130537509918213,-5.236014842987059,11.578630447387695
1746534393.2142212,-3.8123412132263184,-4.077390670776365,10.992210388183594
1746534393.3105617,-3.587918519973755,-4.0750694274902335,8.386334419250488
1746534393.4434583,-5.226180076599121,-7.071475982666014,13.413050651550293
1746534393.502843,-3.06585955619812,-4.438542366027831,7.981853961944581
1746534393.5978987,-5.700783729553223,-4.898179531097411,9.424606323242188
1746534393.694081,-4.802586078643799,-4.907289505004881,12.597744941711426
1746534393.7902153,-0.4229155480861664,-3.949197530746459,7.6309571266174325
1746534393.9180274,-0.6216763257980347,-3.4036219120025626,6.074848651885986
1746534393.9819877,-1.7441487312316895,-2.557647705078124,5.825262069702148
1746534394.0778122,0.944108247756958,-1.0936964750289913,4.112027645111084
1746534394.1751146,1.6037657260894775,-2.714557886123657,3.241080284118653
1746534394.2708292,1.0220296382904053,-3.3898668289184566,3.236069202423096
1746534394.404058,1.7654451131820679,-0.14283446967601737,3.061563014984131
1746534394.4627938,1.4853339195251465,1.537058472633362,0.9301624894142149
1746534394.558987,0.29625362157821655,0.34713238477706954,3.414374828338623
1746534394.6551485,-1.5424187183380127,-5.684176445007323,8.373019218444824
1746534394.7509508,1.5969363451004028,-1.7548656463623045,1.399410128593445
1746534394.8804893,-3.936879873275757,-5.093194961547851,9.913140296936035
1746534394.9427435,-8.088335037231445,-11.45459461212158,17.51734161376953
1746534395.0387182,-5.886845588684082,-10.132207870483397,14.413132667541506
1746534395.134846,-5.035951137542725,-6.616968631744383,11.179825782775879
1746534395.2305613,-2.7167601585388184,-6.058210372924803,11.166060447692871
1746534395.3720124,-1.5454319715499878,-4.16413116455078,7.588869094848634
1746534395.4226322,0.46759286522865295,-2.9307460784912105,3.4928567409515385
1746534395.5187707,1.223683476448059,-2.600042343139648,1.9786522388458254
1746534395.6146855,-1.9938150644302368,1.2932568788528447,4.021990776062012
1746534395.7107067,1.5544164180755615,-1.018661022186279,0.9949021339416505
1746534395.8411427,-1.215870976448059,0.7762081623077397,3.4738075733184814
1746534395.9026248,0.07357102632522583,0.16528043150901822,2.2923641204833984
1746534395.9984186,-3.4460442066192627,-1.593085050582885,6.029379367828369
1746534396.094701,-6.309217929840088,-5.2020578384399405,9.27701187133789
1746534396.1903138,-6.225646495819092,-7.840744018554687,9.946536064147951
1746534396.3266034,-3.870455741882324,-7.253233909606933,10.403134346008303
1746534396.3829393,-5.106544494628906,-3.179404735565184,10.409305572509766
1746534396.4783287,-5.754547595977783,-3.8703804016113272,7.239205837249757
1746534396.5740976,-3.8819923400878906,-5.81510305404663,9.418622016906738
1746534396.673499,-4.761699199676514,-5.175240993499755,9.945577621459961
1746534396.80186,-8.907805442810059,-9.254163742065428,15.01976776123047
1746534396.8633156,-7.224133491516113,-10.586211204528807,18.399507522583008
1746534396.959273,-7.77551794052124,-8.020068168640135,12.397290229797365
1746534397.0552366,-4.0923566818237305,-5.139169216156005,8.169286727905273
1746534397.1510746,-0.3882724344730377,-2.63378357887268,4.5783867835998535
1746534397.2879264,-0.07703879475593567,-3.3195219039916988,3.394772052764893
1746534397.3552938,-1.4932941198349,-1.8070791959762569,3.431663751602173
1746534397.4390063,-5.139915466308594,-2.3019530773162833,7.3007493019104
1746534397.5356321,-3.306434392929077,0.8858336806297308,4.7569403648376465
1746534397.631028,0.7379025220870972,0.11852087080478682,1.1479847431182861
1746534397.766402,2.1597900390625,-0.5902978777885439,-1.8789329528808594
1746534397.8257215,-1.692637324333191,-2.0590109825134273,4.081839561462402
1746534397.920394,-1.833994746208191,1.2198461294174197,2.638417959213257
1746534398.0160954,0.9435299634933472,-0.20709894597530362,0.2179214656352997
1746534398.1120675,-2.543128490447998,0.5917429327964784,1.1063305139541626
1746534398.2479937,-0.01975870132446289,0.0945783406496048,0.008440665900707233
1746534398.303818,-6.759511470794678,-3.117104768753051,6.661818981170654
1746534398.3996725,-7.339626312255859,-6.008457660675047,13.488608360290527
1746534398.4957237,-9.729375839233398,-10.24441623687744,17.282093048095703
1746534398.5916352,-12.764634132385254,-9.357326507568358,20.665159225463867
1746534398.7223248,-10.775226593017578,-9.78175926208496,14.902793884277346
1746534398.783737,-5.73444938659668,-3.6051363945007315,7.067776203155518
1746534398.8805158,-4.342631816864014,-7.848442077636717,11.270986557006838
1746534398.9774754,-9.641254425048828,-7.374518394470213,12.439601898193361
1746534399.0733964,-9.361103057861328,-5.304039001464842,12.113040924072266
1746534399.2068338,-5.470756530761719,-8.332592964172362,12.520581245422365
1746534399.265395,-9.26137638092041,-6.0270228385925275,17.5623836517334
1746534399.361347,-7.945647716522217,-6.597072601318358,12.98470401763916
1746534399.4573326,-6.766362190246582,-6.604682445526121,12.318585395812988
1746534399.5532486,-5.376324653625488,-7.699736595153807,14.577217102050783
1746534399.68396,-8.227961540222168,-7.035430431365965,14.530220031738281
1746534399.7452476,-1.6839399337768555,-1.938750505447387,6.176880359649658
1746534399.8422759,1.298465371131897,-2.208346605300903,1.9802353382110598
1746534399.938126,0.17649948596954346,1.114843010902405,1.4150354862213133
1746534400.0342603,-2.141165018081665,-2.922080039978027,5.379769325256348
1746534400.172244,-4.291397571563721,-0.9193605780601493,6.819983005523682
1746534400.226083,-0.2335922122001648,-2.608636617660522,4.633972644805908
1746534400.3243964,-0.5770089030265808,-1.162156462669372,4.735143661499023
1746534400.418771,-0.8487846851348877,-3.169261455535888,6.417152404785156
1746534400.5145528,-2.7804923057556152,-3.7630019187927237,7.964172840118409
1746534400.6418378,-1.4103326797485352,-3.360904932022094,8.174241065979004
1746534400.7063107,-2.21108341217041,-2.4286897182464586,9.078526496887207
1746534400.8018909,-4.443327903747559,-3.4061107635498034,11.261622428894043
1746534400.897962,-7.582152843475342,-3.628241539001463,14.177553176879883
1746534400.9941542,-0.9886280298233032,-3.619459629058837,6.238275527954102
1746534401.130349,-1.0915625095367432,-3.5907902717590323,6.992777347564697
1746534401.1858678,-1.2261391878128052,-5.165024280548095,10.099593162536621
1746534401.2817822,-6.278470039367676,-10.832906723022457,22.995019912719727
1746534401.3776698,-5.854337692260742,-7.554379463195799,17.959714889526367
1746534401.4736972,-6.8087615966796875,-7.972189426422117,17.5911808013916
1746534401.6042428,-5.4224748611450195,-6.2748160362243635,12.454026222229004
1746534401.6656935,-7.519604682922363,-10.58875274658203,17.7070255279541
1746534401.761898,-5.620961666107178,-6.781098842620848,13.220766067504883
1746534401.8576899,-8.88613510131836,-8.214881896972654,15.51692581176758
1746534401.953658,-5.76777982711792,-7.210529327392576,11.150559425354004
1746534402.089946,-7.617852687835693,-8.085357666015623,14.831631660461428
1746534402.1674504,-10.530465126037598,-8.207904815673826,19.321714401245117
1746534402.241766,-3.395674467086792,-5.776756286621092,10.922938346862793
1746534402.34059,-6.218043804168701,-5.555782318115233,13.495487213134766
1746534402.4366956,-6.9542436599731445,-5.873966217041014,13.496546745300293
1746534402.569301,-4.32789945602417,-5.886420726776121,12.825581550598145
1746534402.626327,-4.509068012237549,-4.218448638916014,11.213335990905762
1746534402.7248757,-5.343265533447266,-6.054447174072264,13.361663818359375
1746534402.824454,-2.417858123779297,-3.1947481632232657,7.002577781677246
1746534402.9175687,-5.447051048278809,-5.791226387023924,13.926229476928711
1746534403.0514014,-4.8619232177734375,-5.488985061645506,11.679855346679688
1746534403.1091766,-5.625471591949463,-7.020361900329588,11.958788871765137
1746534403.2046075,-5.222131729125977,-5.812410354614257,9.162785530090332
1746534403.300739,-5.496577739715576,-4.773989677429198,9.243855476379395
1746534403.3967946,-5.443180561065674,-5.171141624450683,10.450664520263672
1746534403.5279248,-7.807359218597412,-2.2342388629913317,12.457727432250977
1746534403.5889063,-5.240108966827393,-1.1287884712219225,10.829218864440918
1746534403.6846845,-2.431450843811035,-5.218364238739013,9.911730766296387
1746534403.7801545,-4.248115539550781,-5.691313743591307,11.867108345031738
1746534403.8762317,-6.130875587463379,-5.671270370483397,12.629247665405273
1746534404.0093718,-2.3776679039001465,-4.9309067726135245,10.14258861541748
1746534404.0679867,-3.879225254058838,-8.794880867004393,10.694624900817873
1746534404.164171,-7.717219829559326,-2.9321720600128156,14.047598838806152
1746534404.2600882,-3.469728469848633,-4.255653858184813,11.005586624145508
1746534404.3560462,-2.621541738510132,-7.768839359283446,9.67006015777588
1746534404.4868639,-4.062516689300537,-6.6764793395996085,10.443892478942871
1746534404.547892,-2.9623897075653076,-3.4833998680114733,9.815672874450684
1746534404.6438537,-0.5534627437591553,-3.8973579406738272,7.040170669555665
1746534404.7398853,-0.35098639130592346,-1.3029148578643792,4.8114728927612305
1746534404.8379068,-0.6774388551712036,-3.5887401103973384,5.407599925994873
1746534404.9760134,-2.948031187057495,-1.9505637884140006,6.787203788757324
1746534405.0280201,0.8927726745605469,1.0084172487258916,3.8954896926879883
1746534405.1238577,-0.52586829662323,-2.9954206943511954,5.583794116973877
1746534405.2200792,-1.7245157957077026,-3.4285292625427237,6.874429702758789
1746534405.3159332,-1.1858186721801758,-0.8819069862365714,7.659378528594971
1746534405.4465585,0.0518643856048584,-1.8013654947280877,5.519437313079834
1746534405.5080235,-1.8848737478256226,-3.8776040077209464,8.867877960205078
1746534405.6036491,-2.473832607269287,-2.963034152984618,10.058430671691895
1746534405.6997645,-4.337775230407715,-5.447323322296141,13.14254093170166
1746534405.7987213,-3.2849204540252686,-7.938467979431151,13.51475238800049
1746534405.9317708,-5.753566265106201,-4.960136413574217,15.266827583312988
1746534405.990394,-3.661439895629883,-4.200191497802733,11.604744911193848
1746534406.0863862,-3.3604559898376465,-4.174138069152831,10.195782661437988
1746534406.182405,-3.074104070663452,-8.37312316894531,11.386415481567385
1746534406.2782629,-1.9236520528793335,-2.8937485218048082,9.107854843139648
1746534406.4058485,0.7660531997680664,-4.71012258529663,5.694447994232179
1746534406.4701574,-1.1315882205963135,1.6351289749145514,5.961819171905518
1746534406.5642495,-2.334294557571411,0.6019864678382884,8.247111320495605
1746534406.6613903,-1.3448108434677124,-1.4918528795242303,6.079967975616455
1746534406.7573197,-4.171749591827393,-3.83043599128723,9.151468276977539
1746534406.8936033,-2.836967706680298,-2.637676239013671,6.204193115234375
1746534406.961563,-3.342346668243408,-0.34835487604141163,5.9101643562316895
1746534407.0451202,-3.5218207836151123,-2.728788137435912,6.778873443603516
1746534407.141113,-4.159855842590332,-5.65428066253662,7.8612613677978525
1746534407.2372844,-5.5678277015686035,-5.722155094146728,10.063138961791992
1746534407.3727965,-2.168710470199585,-6.691597461700439,8.47033977508545
1746534407.4294264,-5.802321434020996,-6.031595230102537,11.79969596862793
1746534407.5251606,-4.07301664352417,-6.032071113586425,10.597150802612305
1746534407.6213102,-5.699594020843506,-5.881838798522947,12.745532035827637
1746534407.7176461,-4.06854248046875,-5.018205165863036,10.527484893798828
1746534407.8533363,-5.517837047576904,-5.520415782928465,14.322563171386719
1746534407.9089863,-4.492244243621826,-5.702000141143797,11.727418899536133
1746534408.0080018,-2.4899375438690186,-4.1442904472351065,8.952239990234375
1746534408.1040838,-2.858853816986084,-3.3528401851654044,7.381937026977539
1746534408.1998162,-3.700256824493408,-1.8607319593429559,5.745699882507324
1746534408.3276777,-2.008601188659668,-3.599362134933471,8.072977066040039
1746534408.3917513,-1.6676393747329712,-2.2210230827331534,6.1988420486450195
1746534408.4885132,-4.060609340667725,-3.2655687332153307,9.911689758300781
1746534408.5839899,-3.88948392868042,-3.6431617736816393,10.953496932983398
1746534408.6798291,-3.5487639904022217,-5.165038108825683,9.891236305236816
1746534408.813128,-5.683664798736572,-5.794655799865721,12.21388053894043
1746534408.8717282,-5.3742570877075195,-5.447877407073973,13.568693161010742
1746534408.967781,-5.2185211181640625,-5.696873664855955,12.757296562194824
1746534409.0635467,-5.390185356140137,-4.031746864318847,8.8214693069458
1746534409.1601748,-3.3536064624786377,-5.29867362976074,11.480320930480957
1746534409.2875443,-3.2704007625579834,-5.672743320465086,12.026588439941406
1746534409.3515148,-7.596737861633301,-5.252224445343016,14.27448844909668
1746534409.4483373,-3.8681044578552246,-5.462985038757323,10.522496223449707
1746534409.543581,-4.382317066192627,-4.912468910217283,11.860172271728516
1746534409.639697,-4.455488204956055,-3.6003561019897448,11.844517707824707
1746534409.7776024,-5.124484062194824,-5.961248874664305,11.629154205322266
1746534409.831526,-6.145504951477051,-6.509214401245115,11.6214599609375
1746534409.927566,-1.4955216646194458,-4.742660045623778,8.438952445983887
1746534410.023462,-6.02362585067749,-7.236443996429442,13.557778358459473
1746534410.11975,-8.511909484863281,-8.598874092102049,18.66904067993164
1746534410.2500691,-9.531088829040527,-8.426129341125487,19.99249267578125
1746534410.311544,-8.787769317626953,-9.297148704528807,19.061445236206055
1746534410.407427,-8.817700386047363,-8.238170623779295,20.51268768310547
1746534410.5032423,-8.590742111206055,-7.080473423004148,20.276588439941406
1746534410.5993054,-6.655389785766602,-6.5189566612243635,15.562958717346191
1746534410.7357368,-3.690005302429199,-5.3731131553649885,10.993704795837402
1746534410.7911701,1.2143734693527222,-4.752183437347411,4.712576866149903
1746534410.8870327,2.7717323303222656,-1.0929425954818723,1.0523861646652224
1746534410.9832685,-0.03648453950881958,-2.3287727832794185,2.989315509796143
1746534411.079119,2.4082319736480713,-1.8017377853393555,0.6392979621887209
1746534411.2095513,-0.32531747221946716,-0.4046800732612602,6.218637466430664
1746534411.270912,1.9373068809509277,-2.1959996223449703,4.529902935028076
1746534411.3670173,1.489904522895813,-3.647899866104125,6.635441303253175
1746534411.4660604,0.5326089859008789,-1.9799838066101065,7.3709397315979
1746534411.561753,-1.1334940195083618,-6.179499149322508,11.102070808410645
1746534411.6952488,-1.8903347253799438,-3.2140870094299303,9.403101921081543
1746534411.7755578,-0.4824487864971161,-5.3183579444885245,8.295795440673828
1746534411.8498654,-2.1081533432006836,-8.68917942047119,13.064270019531252
1746534411.9458544,-1.6736167669296265,-5.763817310333251,10.553025245666504
1746534412.0417848,-3.0232207775115967,-0.7234522104263295,9.350285530090332
1746534412.1739843,-1.586759090423584,-1.5328750610351554,7.849392890930176
1746534412.2337053,-2.4278948307037354,-2.333392858505248,7.832183361053467
1746534412.329898,-3.371417760848999,-4.079436302185058,9.40092945098877
1746534412.425585,-1.5120763778686523,-5.897321224212646,8.488325119018555
1746534412.52176,-1.5811567306518555,-3.4543826580047594,9.488847732543945
1746534412.6550884,-0.032537609338760376,-2.6637296676635738,5.312628269195557
1746534412.7138026,-2.872464418411255,-0.004410780966280887,8.197999000549316
1746534412.809643,-1.634278655052185,-1.2986751794815055,7.014768600463867
1746534412.9053898,-1.128047227859497,-0.579818367958068,6.85017728805542
1746534413.0017817,-4.567910194396973,-1.2179682254791249,9.452432632446289
1746534413.129393,0.5874261856079102,0.0363973900675776,1.9186184406280518
1746534413.1935408,-2.7729151248931885,-3.169548273086547,8.05628776550293
1746534413.289322,-4.071633338928223,-2.080503225326537,7.022537708282471
1746534413.385293,-5.901576995849609,-1.818203568458556,8.70313835144043
1746534413.483671,-3.2623884677886963,-3.301200866699218,6.6242804527282715
1746534413.6177955,-6.912884712219238,-6.518829345703123,12.559165000915527
1746534413.6732993,-6.373467445373535,-0.9685425758361808,7.668548107147217
1746534413.7692533,-2.5105276107788086,2.6382789611816406,1.3227821588516233
1746534413.8657253,-0.761196494102478,1.2423157691955562,-4.152100563049316
1746534413.9610784,-7.3424882888793945,-5.711697578430175,5.577559471130372
1746534414.0916333,-10.925802230834961,-9.08893585205078,13.322480201721193
1746534414.153097,-12.386527061462402,-10.535031318664549,20.35550880432129
1746534414.2492454,-15.954397201538086,-13.144189834594723,23.03902816772461
1746534414.3451629,-11.891637802124023,-7.502558231353758,16.47885513305664
1746534414.4409235,-7.093480587005615,-5.623492717742919,7.403052806854249
1746534414.5791855,-7.350099563598633,-3.355424880981444,10.266477584838867
1746534414.632939,-7.800858974456787,-3.5267128944396955,14.013957977294922
1746534414.7292764,-12.120499610900879,-9.16407775878906,20.289289474487305
1746534414.8250813,-10.014452934265137,-9.135521888732908,13.77899742126465
1746534414.9214013,-8.636213302612305,-7.584381103515623,15.19590759277344
1746534415.0515633,-6.91772985458374,-5.2032666206359846,13.29927921295166
1746534415.1159542,-8.09724235534668,-6.547865390777586,11.013341903686523
1746534415.2120476,-3.7402405738830566,-3.347762584686278,10.515279769897461
1746534415.3077316,-6.018291473388672,-4.803362369537352,13.024038314819336
1746534415.4043112,-3.554914951324463,-2.317246198654174,8.662759780883789
1746534415.5380983,-1.7166563272476196,-1.9661026000976556,6.319807529449463
1746534415.5960457,-1.6024974584579468,-3.0301797389984126,4.537909984588623
1746534415.691749,-1.1537712812423706,-3.642915725708007,9.039366722106934
1746534415.7875235,-0.09565162658691406,-2.575533866882323,10.993253707885742
1746534415.8837702,-1.5432084798812866,-4.43472099304199,11.27390193939209
1746534416.0113387,0.7030719518661499,-1.9284436702728265,5.77927303314209
1746534416.0758786,2.2516322135925293,-1.1580452919006343,4.426360607147217
1746534416.1715074,-0.38688984513282776,-1.9934742450714102,7.826200485229492
1746534416.2676678,0.23484984040260315,-1.0750390291213983,6.111100196838379
1746534416.3644092,1.361138939857483,-2.3875856399536124,6.839199066162109
1746534416.4979959,1.949313998222351,-0.5227143764495842,6.338658809661865
1746534416.5684392,2.9249887466430664,0.33622494339942993,4.852741718292236
1746534416.6523526,2.0658276081085205,-0.5164451003074636,8.156198501586914
1746534416.7485166,-0.028816699981689453,-1.5897628068923941,7.138660430908203
1746534416.844332,0.9208569526672363,-1.6529555320739735,8.435585975646973
1746534416.97375,-1.0831466913223267,-2.6140325069427477,9.382819175720215
1746534417.036298,1.2514358758926392,-2.6282339096069327,8.870298385620117
1746534417.1326878,-2.526144027709961,-3.2919011116027814,13.918205261230469
1746534417.2284071,-2.1915972232818604,-2.514622449874876,12.828374862670898
1746534417.3242097,0.3544482886791229,-2.7760767936706534,8.317970275878906
1746534417.4573824,-5.697612285614014,-5.523313522338865,13.811995506286621
1746534417.5163383,-0.9464659690856934,-2.776569604873656,9.207247734069824
1746534417.6121645,-0.10060331225395203,-2.528607130050658,9.850424766540527
1746534417.7080445,-3.5705063343048096,-4.5685009956359846,12.551920890808105
1746534417.8041074,-1.0342893600463867,-2.7942814826965323,8.600835800170898
1746534417.9348493,-0.4241408407688141,-2.576182842254638,7.246656894683838
1746534417.995901,-2.713299036026001,-3.6024177074432355,12.917950630187988
1746534418.0920238,-0.33749786019325256,-2.9325776100158683,8.004495620727539
1746534418.1888409,0.5300916433334351,-3.0043263435363756,9.591991424560547
1746534418.2849298,-1.3640133142471313,-3.343004226684569,11.254627227783203
1746534418.41827,1.3837300539016724,-2.0295491218566886,7.33091402053833
1746534418.4771698,-2.5407936573028564,-3.637513160705565,10.123978614807129
1746534418.5727913,-0.8275021314620972,-2.4146513938903795,10.395910263061523
1746534418.6687126,-0.5353513956069946,-2.775058984756469,7.856020927429199
1746534418.7648153,1.3561608791351318,-2.6031506061553946,5.9512434005737305
1746534418.892275,-0.5493694543838501,-2.0404746532440177,6.999110221862793
1746534418.9566836,0.5414618253707886,-1.3125352859497061,7.9550042152404785
1746534419.0526028,-0.666784942150116,-3.0277645587921134,5.790048122406006
1746534419.1485014,-0.05860865116119385,-1.5766888856887809,7.498137950897217
1746534419.244718,-1.2540221214294434,-2.4957211017608634,7.573916435241699
1746534419.3809168,-0.7557351589202881,-1.3811627626419054,11.654219627380371
1746534419.4366238,-2.229299545288086,-4.562747001647948,9.576882362365723
1746534419.5325599,-3.040637254714966,-5.289420127868651,13.727968215942383
1746534419.6287875,-1.4212782382965088,-5.059374332427978,7.237232208251954
1746534419.7267702,-2.1637022495269775,-2.8410620689392077,9.976786613464355
1746534419.8553066,-0.31412652134895325,-1.3324549198150626,8.112994194030762
1746534419.9167745,0.47892487049102783,-0.8537909984588617,4.735638618469238
1746534420.012444,1.093358039855957,-0.6086338758468622,4.34899377822876
1746534420.1083992,-0.14792290329933167,-0.6924660801887504,6.6471943855285645
1746534420.204338,-2.933600902557373,-5.39245843887329,8.853691101074219
1746534420.340628,-3.6387009620666504,-6.473689079284666,12.998275756835938
1746534420.3965144,-4.779702663421631,-3.9149250984191877,14.364995956420898
1746534420.4922698,-0.6754177808761597,-1.9101260900497425,8.554449081420898
1746534420.5882378,-4.782895088195801,-7.3909449577331525,12.269087791442873
1746534420.6844213,-4.697533130645752,-5.549717426300047,16.037378311157227
1746534420.8150625,-4.292718887329102,-1.6817375421524032,13.43056869506836
1746534420.879216,-2.5445919036865234,-4.3633360862731925,9.424907684326172
1746534420.9750507,-1.037718653678894,-3.6202995777130114,11.231950759887695
1746534421.0713456,-0.7010152339935303,-1.297512173652648,7.6895599365234375
1746534421.167078,-1.7733186483383179,0.43212029337883096,8.050167083740234
1746534421.3001833,-2.525622844696045,-2.8194537162780753,6.955014705657959
1746534421.3804674,-2.5653676986694336,-5.299696922302244,12.967890739440918
1746534421.4548635,-1.573466420173645,-3.966223716735838,12.991808891296387
1746534421.5510921,-0.844719409942627,-3.152871370315551,8.35947322845459
1746534421.6471002,-2.9180173873901367,-5.932302951812743,8.85163402557373
1746534421.7742836,-4.466665267944336,-6.852433681488035,11.038545608520508
1746534421.8387945,-2.268855094909668,-4.554508209228514,11.945371627807617
1746534421.934808,-2.7819297313690186,-3.351569175720213,13.029308319091797
1746534422.0309649,-5.078241348266602,-3.6936347484588605,15.219632148742676
1746534422.1266882,-3.8212404251098633,-6.2599544525146475,9.854723930358887
1746534422.264876,-1.5134230852127075,-5.407945156097411,8.536959648132324
1746534422.3189275,-1.4278424978256226,-4.84054136276245,9.491415023803711
1746534422.415258,-0.7423441410064697,-0.34564951062202354,8.251434326171875
1746534422.5106692,1.1413724422454834,0.10458235442638449,4.222389221191406
1746534422.6066892,0.866092324256897,-2.3743796348571773,4.4259819984436035
1746534422.73732,-0.886547327041626,-5.850292205810546,6.3944082260131845
1746534422.7983556,1.9502314329147339,-1.4391584396362296,7.204034805297852
1746534422.894656,-0.39416393637657166,-2.425390005111693,9.277040481567383
1746534422.990314,-3.298842668533325,-2.7703440189361555,12.912671089172363
1746534423.0874672,-4.119807720184326,-6.182732582092283,11.153952598571777
1746534423.220828,-5.344021797180176,-9.831170082092283,14.2002010345459
1746534423.2794876,-4.2758307456970215,-4.256999015808104,13.955599784851074
1746534423.37542,-4.105700492858887,-4.102913379669188,13.056889533996582
1746534423.4713485,-1.738057255744934,-4.827710628509521,10.230589866638184
1746534423.5676217,-0.381573349237442,-3.7963094711303698,9.833885192871094
1746534423.694866,1.5355573892593384,-1.9626659154891961,6.012040615081787
1746534423.7594078,1.7437613010406494,-0.48321849107742243,5.631931781768799
1746534423.855257,1.4373369216918945,-0.2952817380428307,6.0015764236450195
1746534423.9512448,0.7568091154098511,0.3878783583641058,4.748449802398682
1746534424.0473413,1.0797605514526367,-0.23134034872055007,3.8932480812072754
1746534424.1835911,0.7749451994895935,-1.8687105178833003,2.9410066604614262
1746534424.2391977,0.25542518496513367,-1.3032749891281121,4.710841178894043
1746534424.3375216,2.4191503524780273,-0.08831667155027324,5.30214786529541
1746534424.4312377,0.7392662763595581,-2.6133437156677237,7.399174213409424
1746534424.5295086,-0.7425388097763062,-2.191636562347411,7.952630996704102
1746534424.657702,-1.1127690076828003,-5.90006399154663,7.324750423431397
1746534424.7191732,-2.8441245555877686,-6.386150836944579,9.565174102783203
1746534424.8149028,-3.625983238220215,-3.8028357028961164,13.638433456420898
1746534424.9110768,-3.860983371734619,-3.4904735088348375,11.098897933959961
1746534425.007042,-4.018775463104248,-6.003176212310789,10.886981010437012
1746534425.143297,-2.5397777557373047,-2.849624156951903,10.589680671691895
1746534425.2018478,-2.4108073711395264,-0.11857386678457131,10.505796432495117
1746534425.2975533,-1.5239704847335815,-2.2428267002105704,7.593690395355225
1746534425.3936062,-2.7086751461029053,-4.744736194610594,11.170757293701172
1746534425.4897182,-5.438021659851074,-4.410707473754881,16.42966079711914
1746534425.6175356,-6.161064147949219,-10.127830505371092,15.47738552093506
1746534425.681658,-6.47714900970459,-8.147015571594237,12.07329559326172
1746534425.7775598,-5.957151412963867,-6.552091121673582,13.893528938293457
1746534425.8736458,-6.577991008758545,-6.939591884613035,14.686291694641113
1746534425.96958,-4.228165626525879,-4.847686767578123,12.911524772644043
1746534426.1028364,-3.6571056842803955,-3.787002563476561,10.812344551086426
1746534426.173886,-3.049923896789551,-5.1445226669311515,10.350805282592773
1746534426.2584412,-1.3985130786895752,-1.7494907379150382,6.9504289627075195
1746534426.353576,-1.2205326557159424,0.41026479005813676,6.346044063568115
1746534426.4499505,0.027447909116744995,-3.2786784172058097,5.79984712600708
1746534426.5777068,1.4699981212615967,-2.309430360794067,3.448400735855103
1746534426.6425736,1.777637004852295,-2.828222274780273,4.079041481018066
1746534426.7382941,-0.011668801307678223,-2.2925236225128165,6.312469959259033
1746534426.8343985,-1.6503369808197021,-2.187525749206542,7.088665962219238
1746534426.9306245,-0.808702290058136,-3.9595749378204337,6.581257820129395
1746534427.0710585,1.5989258289337158,-1.561850786209106,3.972142219543457
1746534427.1266818,-0.052417248487472534,-1.9516953229904168,5.137625694274902
1746534427.2187688,-0.6889470815658569,-2.366478443145751,6.229698657989502
1746534427.3155496,-1.7881637811660767,-0.8219276666641225,7.834401607513428
1746534427.4111888,-3.4711194038391113,-2.553033351898192,10.678905487060547
1746534427.5381758,-0.6422497034072876,-4.588063240051269,6.1098036766052255
1746534427.6021905,-1.526694416999817,-3.3448586463928214,6.20072078704834
1746534427.6984339,-1.9874132871627808,-4.002352714538573,5.696424007415772
1746534427.795614,-2.69809627532959,-2.3324711322784415,7.551385879516602
1746534427.8904614,-4.544307231903076,-0.2648094594478596,8.92750072479248
1746534428.0238245,-1.5365355014801025,-0.6683047413825981,6.056356906890869
1746534428.083442,-3.997929573059082,-4.459587574005126,7.9331021308898935
1746534428.1798236,-5.584322452545166,-2.2678987979888903,10.395858764648438
1746534428.2751272,-4.706910610198975,-1.6994813680648793,8.998376846313477
1746534428.369351,-4.380051136016846,-5.128601074218749,8.11335563659668
1746534428.500372,-6.981889247894287,-2.4825837612152086,11.315619468688965
1746534428.5612514,-2.360858678817749,-1.6781589984893792,4.6566691398620605
1746534428.6608086,-6.736027717590332,-4.633655548095701,10.884147644042969
1746534428.7564874,-5.4225568771362305,-2.574938297271727,9.767224311828613
1746534428.8524008,-7.6206488609313965,-6.032735824584959,12.646656036376953
1746534428.9849827,-9.764778137207031,-9.077616691589354,18.196361541748047
1746534429.0437117,-10.541893005371094,-6.841175556182859,18.531091690063477
1746534429.140603,-10.472397804260254,-13.548659324645993,23.590604782104492
1746534429.235728,-9.66356086730957,-7.083749771118161,19.690950393676758
1746534429.331639,-4.866374969482422,-8.508299827575682,14.683272361755373
1746534429.4639068,-9.119050025939941,-4.740336894989012,15.877284049987793
1746534429.5235476,-3.0005643367767334,-5.097312927246093,9.113520622253418
1746534429.6213026,-8.512981414794922,-5.033927440643309,14.42095947265625
1746534429.715471,-6.640683174133301,-2.8345215320587145,11.99512004852295
1746534429.8117065,-4.637882232666016,-8.456804275512694,14.696453094482424
1746534429.9445662,-7.309969902038574,-4.64467668533325,14.197236061096191
1746534430.0035052,-6.029664993286133,-3.4035809040069567,12.440664291381836
1746534430.099363,-9.243157386779785,-7.461281776428221,13.040181159973146
1746534430.1954112,-10.589839935302734,-3.1158030033111555,12.747701644897461
1746534430.2916086,-8.547815322875977,-4.072931766510009,7.862111568450929
1746534430.4187841,-2.790431499481201,-4.544975757598876,4.905892848968507
1746534430.4836826,-4.45842981338501,-3.0289046764373775,5.02834939956665
1746534430.579246,-5.1748552322387695,-3.217263460159301,6.158011436462402
1746534430.675231,-3.8949875831604004,-3.1515841484069815,6.264741897583008
1746534430.771803,-3.5410501956939697,-2.842217922210693,5.174266338348389
1746534430.907375,-2.5278594493865967,-2.2913305759429927,4.239773750305176
1746534430.9846227,-2.5317294597625732,-2.0782332420349117,3.9687407016754155
1746534431.059075,-2.4627487659454346,-2.43333888053894,4.032052993774414
1746534431.1552439,-2.818075180053711,-2.2683415412902828,4.692378997802734
1746534431.251768,-2.8228371143341064,-2.203074693679809,4.922048091888428
1746534431.3813484,-3.311394214630127,-2.810349464416503,5.765369892120361
1746534431.4431431,-3.181504011154175,-2.7760171890258785,5.312244892120361
1746534431.5389717,-3.2870054244995117,-2.7678914070129386,5.471780300140381
1746534431.6349227,-3.4443018436431885,-2.427843809127807,5.327669143676758
1746534431.7307532,-3.8981666564941406,-2.9837462902069083,5.4719133377075195
1746534431.8722198,-3.5510807037353516,-1.908398032188415,4.479877471923828
1746534431.9230309,-3.4990897178649902,-1.740819931030273,3.568328619003296
1746534432.021839,-3.7587780952453613,-3.044805288314819,4.151957035064697
1746534432.115134,-3.4421825408935547,-2.3495194911956783,3.566402673721314
1746534432.2136984,-3.2794528007507324,-1.094331622123718,2.206162214279175
1746534432.3414388,-3.7383172512054443,-1.754388928413391,2.4135866165161133
1746534432.4059844,-5.122648239135742,-2.8547170162200923,2.689679384231568
1746534432.5015094,-4.344571113586426,-2.2746694087982178,1.7482450008392336
1746534432.5975912,-3.293593645095825,-0.2028681635856629,-0.5583336353302002
1746534432.6936846,-3.1190245151519775,-0.33911234140396135,-1.2015663385391235
1746534432.8268573,-2.4756226539611816,1.521964907646179,-2.095465660095215
1746534432.8854654,-4.253323554992676,-1.1657201051712034,2.2975196838378906
1746534432.9814057,-2.6875264644622803,0.10183507949113826,-1.6357191801071167
1746534433.077668,-6.2718329429626465,-0.3569382727146146,2.3284945487976074
1746534433.1733727,-7.07084846496582,0.1532086133956911,1.5999131202697754
1746534433.3008506,-2.448150157928467,-1.8921930789947512,-1.50085711479187
1746534433.365166,-5.62390661239624,0.8745815157890313,-5.064745903015137
1746534433.461238,-7.325181484222412,1.6948674917221067,-1.575580954551697
1746534433.5572655,-6.074089050292969,-2.092039108276367,-1.3770399093627927
1746534433.6531026,-3.1218509674072266,-1.1261444091796877,-1.0723325014114378
1746534433.7864416,-5.052321434020996,1.2176798582077022,-3.5591301918029785
1746534433.845068,-6.006942272186279,-5.637430667877196,7.782636165618897
1746534433.941037,-14.146467208862305,-7.26172924041748,7.934522628784181
1746534434.038191,-12.346918106079102,-1.950042843818664,2.97606897354126
1746534434.133956,-13.545092582702637,-9.790122032165526,12.446527481079103
1746534434.2662876,-13.398561477661133,-13.865777015686033,19.424339294433594
1746534434.3258643,-14.913290977478027,-7.754272937774657,9.881850242614748
1746534434.421897,-15.609395027160645,-6.7102060317993155,10.169501304626465
1746534434.519884,-10.244938850402832,-5.235331058502196,4.486010551452638
1746534434.6140103,-9.85470962524414,-1.5985293388366693,4.871762752532959
1746534434.7471552,-12.836974143981934,-2.315942049026489,3.1374065876007085
1746534434.8057916,-12.909512519836426,-3.8179590702056876,6.4935927391052255
1746534434.9017355,-10.99787712097168,-1.1800117492675775,5.456445693969727
1746534434.9976473,-11.932207107543945,-3.69110345840454,6.333999156951905
1746534435.0936449,-7.3515625,-7.042479991912841,9.764851570129395
1746534435.224374,-14.226492881774902,-5.09357452392578,9.509628295898438
1746534435.285566,-13.810318946838379,-6.693884849548339,10.614096641540527
1746534435.3816583,-13.30396556854248,-10.160329818725584,14.592350959777834
1746534435.4778187,-9.660320281982422,-7.605757236480712,8.398928642272951
1746534435.5735376,-9.819049835205078,-6.097558975219726,7.326780796051026
1746534435.7099042,-7.804431438446045,-6.976210117340087,10.193355560302734
1746534435.777705,-6.492166519165039,-5.056043148040771,6.729370117187501
1746534435.8616276,-7.128131866455078,-3.509835481643676,5.477063179016113
1746534435.9577188,-5.393097877502441,-3.3486077785491934,5.742475509643555
1746534436.053924,-9.021092414855957,-3.0574476718902583,4.67514705657959
1746534436.1840818,-7.939587116241455,-4.145862102508544,7.136535644531251
1746534436.2452974,-5.4752702713012695,-4.233983516693114,6.391603469848634
1746534436.3414302,-7.689718723297119,-5.696759700775146,9.230582237243652
1746534436.4372137,-9.962533950805664,-3.411584138870239,5.353415489196777
1746534436.5332322,-6.021124839782715,-5.968198299407958,8.27042007446289
1746534436.6723597,-4.434325218200684,-5.2102928161621085,6.40889596939087
1746534436.7273219,-9.34788990020752,-5.873473167419433,8.177715301513672
1746534436.8233657,-5.4270830154418945,-5.384835243225097,6.986022949218751
1746534436.9191897,-8.278796195983887,-5.528671741485595,6.793944835662843
1746534437.0153482,-10.28375244140625,-2.5727167129516597,4.512589454650879
1746534437.1428394,-10.642725944519043,-5.192001819610595,7.092525005340577
1746534437.2077773,-9.43467903137207,-3.8991799354553214,7.032808303833009
1746534437.3031683,-5.178736209869385,-4.977807998657226,6.56739377975464
1746534437.3991802,-7.685298442840576,-2.868580341339111,3.3092694282531743
1746534437.4951296,-8.93778133392334,-6.001027107238769,6.211045265197755
1746534437.6291914,-11.219176292419434,-3.3976118564605704,5.6015400886535645
1746534437.68806,-10.089092254638672,0.0036917943507435145,1.8033063411712646
1746534437.7841773,-6.371632099151611,-4.628897190093993,4.995572090148927
1746534437.8799891,-9.322982788085938,-2.91720962524414,4.016927242279053
1746534437.9759703,-8.613448143005371,-3.6842637062072745,5.691542625427247
1746534438.10331,-9.175060272216797,-4.066102981567382,4.9738221168518075
1746534438.1678054,-5.128658771514893,-5.060858249664306,7.026502132415772
1746534438.2639194,-6.862033367156982,-4.740076065063476,5.828750610351563
1746534438.3596742,-10.009220123291016,-5.927003383636474,9.629049301147461
1746534438.455773,-12.391104698181152,-5.667599201202392,7.980639934539796
1746534438.5921943,-11.266386985778809,-6.533077716827392,7.927020072937013
1746534438.6476877,-10.217700004577637,-5.806235790252685,7.090818405151368
1746534438.743832,-11.55553913116455,-5.488205909729003,6.6781396865844735
1746534438.8396916,-11.759353637695312,-5.471235275268554,6.416705608367921
1746534438.9357643,-10.29214859008789,-4.812323570251464,7.710922718048097
1746534439.067863,-9.027305603027344,-5.062367916107177,8.765801429748535
1746534439.1281118,-10.35462474822998,-6.557992935180663,9.054967880249023
1746534439.224487,-8.524312019348145,-7.51950454711914,9.493401527404787
1746534439.3205035,-8.402148246765137,-4.499338150024413,6.28059482574463
1746534439.4165885,-10.0459623336792,-5.663837432861327,7.880268096923829
1746534439.5496974,-8.854496955871582,-5.837692260742187,8.353765487670898
1746534439.6084678,-8.265210151672363,-6.094606399536132,9.60197639465332
1746534439.7045112,-9.858990669250488,-8.311234474182127,10.503844261169435
1746534439.8002217,-11.63006591796875,-7.955446243286131,12.478230476379396
1746534439.896337,-7.99575138092041,-4.214558601379394,9.408524513244629
1746534440.026985,-1.4469170570373535,-3.476274490356445,4.554950714111328
1746534440.0883653,-4.785555362701416,-5.631351947784423,7.055294036865235
1746534440.1844256,-8.748936653137207,-8.438560485839844,6.907014846801759
1746534440.2801726,-5.545848369598389,-1.2438399791717525,3.0085513591766357
1746534440.3761709,-3.0995564460754395,-1.0649504661560059,0.6910074949264527
1746534440.5124853,-4.497659683227539,-1.556028604507446,2.4812889099121094
1746534440.5896604,-2.5826966762542725,-0.6494283676147459,1.5603255033493042
1746534440.6642296,-1.8545328378677368,-0.9247216582298277,2.0501315593719482
1746534440.7600846,-2.3548388481140137,-0.4880650639533994,2.1881484985351562
1746534440.8559198,-4.7458062171936035,-0.3132274150848387,1.3600857257843018
1746534440.9862971,-6.254455089569092,-0.8654001951217648,2.776413679122925
1746534441.047981,-4.953674793243408,-1.3362125158309934,2.421725273132324
1746534441.1439939,-4.8060688972473145,-1.0896850824356077,1.8208347558975222
1746534441.2431178,-5.2210588455200195,-0.7884404063224792,-0.051268652081489466
1746534441.3388565,-4.036606788635254,-0.39685657620429987,0.4773821830749512
1746534441.4721918,-5.593433856964111,-0.929825484752655,0.39740416407585155
1746534441.530867,-4.596130847930908,-0.942698538303375,1.8977503776550295
1746534441.6269193,-8.400212287902832,-1.7674903869628902,3.9930856227874756
1746534441.7228293,-7.447335720062256,-5.715127944946288,8.197966575622559
1746534441.8187492,-6.6869587898254395,-5.67851686477661,9.030421257019043
1746534441.95129,-8.01176929473877,-8.649126052856444,12.903993606567385
1746534442.010896,-11.464890480041504,-7.108172893524168,12.640378952026367
1746534442.1069338,-10.767398834228516,-10.151081085205076,14.235079765319826
1746534442.2025917,-10.110051155090332,-5.506081581115722,8.588499069213867
1746534442.2984316,-7.250655174255371,-4.280268192291259,6.767128467559815
1746534442.4318378,-5.578321933746338,-6.065469741821288,8.938907623291016
1746534442.4903662,-5.093769073486328,-4.6651902198791495,5.696165561676026
1746534442.586668,-4.621299743652344,-3.541799783706664,5.998119831085205
1746534442.682331,-4.631064414978027,-5.198369503021239,6.986160755157472
1746534442.778265,-7.0396504402160645,-3.8804500102996817,6.220209598541261
1746534442.905969,-8.949284553527832,-8.355555534362791,12.918785095214846
1746534442.9701526,-7.595894813537598,-9.628517150878904,13.591103553771974
1746534443.0674012,-10.678061485290527,-9.00991630554199,13.880492210388185
1746534443.163262,-10.485799789428711,-8.115145683288572,13.457431793212892
1746534443.259448,-9.35849666595459,-6.572931289672851,10.656319618225098
1746534443.3926883,-4.443887233734131,-5.418485164642333,6.804656982421876
1746534443.4513304,-8.05665397644043,-4.537733554840087,8.73609733581543
1746534443.5474355,-3.763838529586792,-2.619554042816161,5.4811110496521
1746534443.6432333,-3.930521249771118,-3.834861755371093,6.403095245361329
1746534443.7392511,-1.0337883234024048,-2.6011722087860103,5.191866874694824
1746534443.8666408,-3.751494884490967,-4.435073375701903,6.986635208129884
1746534443.9311683,-5.137202739715576,-3.768746852874755,7.476332664489747
1746534444.0271485,-4.274041652679443,-3.6449291706085196,7.138579845428468
1746534444.1229699,-2.2351956367492676,-1.9746537208557127,2.42766284942627
1746534444.2192624,0.2165609449148178,-2.3391811847686763,2.462537527084351
1746534444.3553092,-1.0466883182525635,-2.240836143493652,2.4174213409423833
1746534444.4111161,-7.408313751220703,-3.3839731216430655,7.661941051483154
1746534444.5073793,-6.330304145812988,-3.1266412734985343,7.185313701629639
1746534444.602964,-5.138525485992432,-3.720808506011962,8.36560344696045
1746534444.6989372,-4.519606590270996,-4.850269317626952,8.579177856445312
1746534444.8296733,-5.279882907867432,-6.089392185211181,9.5837984085083
1746534444.8908134,-6.153894424438477,-6.759489536285399,11.41416072845459
1746534444.9867754,2.11711049079895,-4.419340133666991,3.9493405818939213
1746534445.0826447,-8.268308639526367,-7.852713584899901,14.992748260498049
1746534445.1785948,-7.516915798187256,-7.456996440887449,11.844617843627931
1746534445.315002,-6.994383811950684,-6.976049423217772,13.934904098510742
1746534445.3829236,-7.859561920166016,-6.010065555572508,11.532500267028809
1746534445.4671414,-9.420125961303711,-4.614015102386474,8.746285438537598
1746534445.5623407,-5.107470512390137,-3.293267011642455,6.884570121765137
1746534445.658417,-2.302415609359741,-1.8980597257614134,2.684109449386597
1746534445.789209,-1.748448133468628,-1.6773043870925899,3.4262301921844482
1746534445.8533287,-0.7133558392524719,-0.63091367483139,2.4963128566741943
1746534445.946822,-3.3406059741973877,-0.6827943921089168,3.715371608734131
1746534446.0453508,-2.659022331237793,-0.911394357681274,3.424088478088379
1746534446.1413727,-5.949840068817139,-3.409670114517211,8.33917236328125
1746534446.27505,-5.406191825866699,-6.639312744140623,11.284102439880371
1746534446.3332381,-3.492755651473999,-8.33506393432617,8.793738365173342
1746534446.4292622,-10.081196784973145,-8.266185760498045,13.135736465454103
1746534446.5231652,-10.175554275512695,-10.617834091186522,13.439806938171388
1746534446.619176,-8.293391227722168,-8.136281013488768,12.337097167968752
1746534446.7547665,-7.914421081542969,-5.989956378936767,10.144699096679688
1746534446.8113794,-4.870540142059326,-1.8198777437210079,4.523322105407715
1746534446.9073834,-0.4459206461906433,1.4761388301849363,-1.7084894180297854
1746534447.0065854,-7.929230213165283,-6.000154495239256,13.01889705657959
1746534447.1020803,-5.634801387786865,-0.8952742815017694,5.744648456573486
1746534447.2353513,-6.350310325622559,-2.794975519180297,5.458889007568359
1746534447.2939289,-7.923808574676514,-7.2805771827697745,9.949369430541994
1746534447.3899,-6.84959077835083,-3.917942762374877,7.482987880706788
1746534447.4858541,-3.579024076461792,-1.5881819725036619,2.4713335037231445
1746534447.5818837,-5.050347328186035,-3.79727554321289,5.354997158050538
1746534447.7106457,-5.265481948852539,-3.1524806022644034,5.808204650878906
1746534447.7720323,-6.223204612731934,-4.656291484832763,7.746833324432374
1746534447.8678281,-5.322789669036865,-3.702129840850829,5.895130634307862
1746534447.9636803,-1.863463044166565,-0.4822159111499786,0.4923120737075806
1746534448.062788,-1.2624304294586182,0.4309172630310057,-1.1505024433135986
1746534448.1960256,-4.025399684906006,-0.6685298085212703,4.032203674316406
1746534448.2545931,-6.060635566711426,-5.976183891296386,9.017498970031738
1746534448.3511844,-6.930154800415039,-5.209762573242187,8.9105806350708
1746534448.4464478,-5.035201549530029,-3.2242684364318843,4.721145153045654
1746534448.5405269,-5.477478504180908,-1.553756713867187,3.4460980892181396
1746534448.6712413,-7.010073661804199,-6.742598056793212,10.278048515319824
1746534448.7325861,-7.388646125793457,-5.987262248992919,10.170774459838867
1746534448.8295257,-7.1044487953186035,-5.794891834259032,9.213393211364746
1746534448.925497,-8.145586967468262,-7.6218996047973615,12.09346675872803
1746534449.021522,-9.167852401733398,-8.521650314331053,14.380909919738771
1746534449.1626165,-7.570414066314697,-5.972832679748534,9.627434730529785
1746534449.2154822,-7.156924247741699,-7.257654190063475,11.292639732360842
1746534449.3095393,-5.65193510055542,-5.0452795028686515,7.833395957946778
1746534449.4057195,-4.688709735870361,-3.9504542350769034,5.9587392807006845
1746534449.5014896,-4.248875617980957,-3.1512143611907955,4.7094292640686035
1746534449.6322396,-3.866189479827881,-2.889912128448486,4.731445789337158
1746534449.6940877,-3.8388729095458984,-2.8327207565307613,4.528069496154785
1746534449.7902052,-4.483692646026611,-3.1174802780151363,5.218132019042969
1746534449.8862078,-3.990260601043701,-2.82571530342102,4.796825885772705
1746534449.9820702,-4.051335334777832,-2.7803485393524165,5.186739444732666
1746534450.1183693,-4.443005084991455,-2.911248445510864,5.333946228027344
1746534450.1957867,-5.201590061187744,-5.307374477386474,8.087949752807617
1746534450.2699277,-4.264334201812744,-3.6712470054626456,5.978285789489747
1746534450.3660164,-3.893880605697632,-2.38136076927185,4.5667948722839355
1746534450.4618988,-4.665044784545898,-4.029679775238036,6.601735591888429
1746534450.5925646,-4.665439128875732,-3.95965814590454,6.837579250335694
1746534450.6537848,-5.055074214935303,-3.931957483291625,7.439652919769288
1746534450.749799,-5.096949100494385,-4.756481170654296,7.771944522857667
1746534450.846022,-4.922346591949463,-4.158013343811034,7.228006839752198
1746534450.942853,-5.421257019042969,-4.283601284027099,7.483031749725343
1746534451.0761003,-5.915963649749756,-4.567858695983886,8.629870414733887
1746534451.1348288,-5.444251537322998,-4.697705268859862,8.520017623901367
1746534451.2307172,-5.7692437171936035,-5.00199794769287,8.760032653808594
1746534451.32688,-5.636785507202148,-4.896721363067626,8.122082710266113
1746534451.4227386,-5.418190956115723,-5.023803234100341,7.512713909149171
1746534451.5583453,-4.598093032836914,-3.6765384674072257,5.522615909576417
1746534451.6146686,-4.857528209686279,-4.167487621307372,6.023061275482179
1746534451.7124512,-4.3900556564331055,-3.0757963657379146,4.877570152282715
1746534451.8070734,-4.594021320343018,-4.237326145172118,5.915830612182618
1746534451.9026456,-5.911310195922852,-5.101146697998046,7.209672451019288
1746534452.0388832,-6.040390968322754,-6.313633918762206,8.290746688842773
1746534452.094419,-5.803082466125488,-3.645701885223388,6.35224485397339
1746534452.192795,-6.8770551681518555,-5.337420463562011,8.69172191619873
1746534452.2864654,-7.089667797088623,-7.7813963890075675,10.58736324310303
1746534452.3822298,-7.654496192932129,-7.737509250640868,10.601859092712404
1746534452.5168488,-6.591481685638428,-6.092336177825927,8.46399974822998
1746534452.574449,-7.215671539306641,-4.62459373474121,8.806563377380371
1746534452.6732748,-4.710406303405762,-3.4388070106506343,5.06060266494751
1746534452.7692997,-4.664717674255371,-1.9061198234558099,4.782827854156494
1746534452.8650897,-6.020415782928467,-5.57121181488037,7.915239334106446
1746534452.9987,-5.806121349334717,-5.014599323272704,7.141286849975587
1746534453.066826,-6.448701858520508,-4.589982986450194,10.219744682312012
1746534453.1535513,-7.081339359283447,-6.590434551239012,11.480728149414062
1746534453.249454,-5.947445392608643,-4.8734397888183585,9.987008094787598
1746534453.345244,-5.588011264801025,-6.257526874542235,9.050732612609863
1746534453.4734027,-6.048028945922852,-6.778276443481444,9.920079231262207
1746534453.5378036,-5.425468444824219,-4.387273311614989,9.080903053283691
1746534453.6363392,-4.688689708709717,-7.461626529693603,9.30977249145508
1746534453.7291858,-3.9085187911987305,-2.2725901603698726,5.022238254547119
1746534453.8248754,-4.636374473571777,-5.458204269409179,8.470788955688477
1746534453.9644277,-4.569507598876953,-4.5046606063842765,8.468172073364258
1746534454.015245,-3.261579751968384,-5.471984386444091,8.067328453063965
1746534454.1138415,-4.500094413757324,-4.739043235778808,8.342838287353516
1746534454.2100248,-2.3635458946228027,-4.747815608978271,6.585172653198243
1746534454.305971,-4.134308338165283,-3.6034762859344474,7.023841381072998
1746534454.4337204,-4.064114093780518,-3.598693370819091,6.642828464508057
1746534454.4982703,-3.869833469390869,-2.5191748142242423,6.201955318450928
1746534454.5939128,-3.580826997756958,-2.5781772136688224,5.720209121704102
1746534454.68978,-4.2178802490234375,-2.3750684261322013,6.750641345977783
1746534454.7857032,-3.729816198348999,-2.9257073402404776,6.263598442077637
1746534454.9193447,-4.7043561935424805,-4.16248607635498,8.620237350463867
1746534454.989855,-5.067662239074707,-4.855125904083251,9.524260520935059
1746534455.073743,-5.89810848236084,-6.3340625762939435,11.126669883728027
1746534455.1699388,-4.726206302642822,-4.893531799316405,8.939095497131348
1746534455.2659416,-5.140046119689941,-5.273913860321044,9.665087699890137
1746534455.3936224,-4.158748626708984,-4.400037288665771,8.439576148986816
1746534455.4578264,-4.061757564544678,-5.045576572418212,8.680693626403809
1746534455.5536945,-3.7170872688293457,-3.8632519245147696,7.682574748992921
1746534455.6497464,-3.725921154022217,-4.794215202331542,7.349023342132569
1746534455.7459607,-3.847658157348633,-3.8793842792510977,6.630739688873292
1746534455.8824575,-4.984201431274414,-5.2459630966186515,8.409028053283691
1746534455.9377406,-4.182861328125,-3.667402505874633,7.735930919647218
1746534456.033638,-4.452916622161865,-4.31230068206787,8.235512733459473
1746534456.1296782,-14.581241607666016,-12.857871055603026,7.306920051574709
1746534456.225782,-30.734853744506836,-1.783706307411192,14.392149925231934
1746534456.3612237,-3.030353546142578,-3.0117399692535396,2.3587877750396733
1746534456.4177997,-6.309456825256348,-5.073877334594726,4.0379276275634775
1746534456.513569,-3.500314235687256,-4.962341785430907,8.31754207611084
1746534456.6098046,-3.6874043941497803,-4.3301401138305655,8.191804885864258
1746534456.7059975,-3.549100160598755,-4.174053668975829,8.195395469665527
1746534456.8422506,-3.4922897815704346,-4.043606758117675,8.001435279846191
1746534456.8977811,-3.4389548301696777,-3.880528211593627,7.949110984802247
1746534456.9941297,-3.6537351608276367,-4.087647914886474,8.296472549438477
1746534457.089583,-3.6982195377349854,-3.939741373062133,8.343486785888672
1746534457.188892,-3.7212390899658203,-4.236348152160644,8.26940631866455
1746534457.3167946,-3.6460444927215576,-4.008681774139403,8.220792770385742
1746534457.3807378,-3.619894027709961,-4.109300613403319,8.238520622253418
1746534457.476722,-3.644247055053711,-4.045222759246825,8.251004219055176
1746534457.5725787,-3.6498770713806152,-4.000993251800536,8.248686790466309
1746534457.6688397,-3.621354818344116,-4.067241668701171,8.211546897888184
1746534457.8019967,-3.642552614212036,-4.0468196868896475,8.225110054016113
1746534457.8589435,-3.6303253173828125,-4.060904026031493,8.233153343200684
1746534457.955535,-3.6418442726135254,-4.057233810424804,8.224348068237305
1746534458.0515544,-3.64050555229187,-4.055685520172118,8.22811222076416
1746534458.1479037,-3.6391239166259766,-4.051419258117675,8.222864151000977
1746534458.2780635,-3.637331962585449,-4.055269241333007,8.219659805297852
1746534458.3398457,-3.64835524559021,-4.009607315063476,8.249857902526855
1746534458.4356222,-3.636796236038208,-4.0237951278686515,8.23789119720459
1746534458.5322995,-3.6382017135620117,-4.075653076171874,8.237120628356934
1746534458.627724,-3.631605625152588,-4.0639681816101065,8.22939395904541
1746534458.7657661,-3.6401147842407227,-4.037767410278319,8.231989860534668
1746534458.8212807,-3.636934995651245,-4.0346922874450675,8.229451179504395
1746534458.9155145,-3.61254620552063,-4.070864677429198,8.227704048156738
1746534459.013667,-3.6357786655426025,-4.046359062194823,8.237443923950195
1746534459.1078086,-3.6418566703796387,-4.027565956115722,8.233342170715332
1746534459.2382195,-3.626922369003296,-4.0190954208374015,8.215964317321777
1746534459.299653,-3.647268533706665,-4.055273532867431,8.238235473632812
1746534459.3955672,-3.6430821418762207,-4.062421798706054,8.233048439025879
1746534459.494436,-3.6177101135253906,-4.104774951934814,8.207813262939453
1746534459.5904305,-3.6296329498291016,-4.079889297485351,8.225663185119629
1746534459.723926,-3.6469199657440186,-4.017667770385741,8.23969841003418
1746534459.804489,-3.6488373279571533,-4.031579017639159,8.226962089538574
1746534459.8763375,-3.620026111602783,-4.0868844985961905,8.214681625366211
1746534459.9723644,-3.6265361309051514,-4.113533496856689,8.198148727416992
1746534460.0694437,-3.6333658695220947,-4.073051452636718,8.225186347961426
1746534460.1968806,-3.630528450012207,-4.05655288696289,8.229625701904297
1746534460.262387,-3.6403565406799316,-4.059736251831054,8.227664947509766
1746534460.3582325,-3.6373157501220703,-4.094871520996093,8.208648681640625
1746534460.454279,-3.6258435249328613,-4.059303283691405,8.21962833404541
1746534460.5504153,-3.628260612487793,-4.0738229751586905,8.218446731567383
1746534460.6837304,-3.6334192752838135,-4.056096076965331,8.22513198852539
1746534460.7426846,-3.6328723430633545,-4.046401023864745,8.233317375183105
1746534460.8381767,-3.6318492889404297,-4.061777591705321,8.22513198852539
1746534460.9341967,-3.6281611919403076,-4.070546150207519,8.219477653503418
1746534461.0306425,-3.636310338973999,-4.08622646331787,8.211396217346191
1746534461.162855,-3.6327829360961914,-4.079796791076659,8.213022232055664
1746534461.2222173,-3.627805233001709,-4.072551250457763,8.224628448486328
1746534461.3194768,-3.6271281242370605,-4.0819454193115225,8.238640785217285
1746534461.4172163,-3.634432554244995,-4.078572273254394,8.216630935668945
1746534461.5109315,-3.632024049758911,-4.076734542846679,8.222909927368164
1746534461.6466198,-3.639465570449829,-4.073593139648437,8.215868949890137
1746534461.7026904,-3.6238317489624023,-4.085962295532226,8.210243225097656
1746534461.7983208,-3.636568784713745,-4.065531730651855,8.221235275268555
1746534461.8950858,-3.622617244720459,-4.08156394958496,8.217378616333008
1746534461.9903383,-3.6248779296875,-4.092259883880614,8.217872619628906
1746534462.1210668,-3.6278154850006104,-4.108852863311767,8.218457221984863
1746534462.182182,-3.617088794708252,-4.109916687011718,8.212197303771973
1746534462.2781727,-3.6250061988830566,-4.084198474884032,8.225067138671875
1746534462.3740914,-3.6234090328216553,-4.092113494873046,8.211535453796387
1746534462.472817,-3.628047227859497,-4.097676277160644,8.204510688781738
1746534462.6066751,-3.6246674060821533,-4.099607467651366,8.22143840789795
1746534462.6623964,-3.623486280441284,-4.094375133514403,8.213159561157227
1746534462.7580237,-3.627938985824585,-4.1068663597106925,8.218669891357422
1746534462.8542297,-3.6235413551330566,-4.092667579650878,8.217721939086914
1746534462.953185,-3.6317477226257324,-4.0867366790771475,8.22221851348877
1746534463.08065,-3.61958384513855,-4.0982723236083975,8.201491355895996
1746534463.1451476,-3.6232001781463623,-4.112506389617919,8.215869903564453
1746534463.2411084,-3.631800651550293,-4.089274406433105,8.221474647521973
1746534463.3371034,-3.6231400966644287,-4.084064960479735,8.2170991897583
1746534463.4332256,-3.62121319770813,-4.106117248535155,8.214675903320312
1746534463.566244,-3.6279890537261963,-4.1122655868530265,8.214683532714844
1746534463.6251671,-3.6249947547912598,-4.1087937355041495,8.214159965515137
1746534463.721036,-3.62296986579895,-4.099226474761962,8.21469497680664
1746534463.8171387,-3.6229827404022217,-4.114447593688964,8.211359977722168
1746534463.9135718,-3.625697612762451,-4.1130380630493155,8.215085983276367
1746534464.0418346,-3.6319005489349365,-4.080838680267333,8.223384857177734
1746534464.1034615,-3.6306583881378174,-4.077016830444335,8.218953132629395
1746534464.202257,-3.6312527656555176,-4.112166881561278,8.218873023986816
1746534464.2980125,-3.626049757003784,-4.0903658866882315,8.218596458435059
1746534464.394057,-3.6281163692474365,-4.084828853607177,8.224957466125488
1746534464.527302,-3.623868227005005,-4.082462310791015,8.206326484680176
1746534464.596038,-3.623295307159424,-4.089590072631835,8.210143089294434
