timestamp,ax,ay,az
1746623499.7052977,1.5019451379776,-6.105974197387694,6.992944240570069
1746623500.4002635,0.47952598333358765,-3.1358773708343497,7.427043437957764
1746623501.1305573,0.47952598333358765,-3.1358773708343497,7.427043437957764
1746623502.2164054,-0.48392194509506226,-7.827068328857421,7.56537961959839
1746623502.6045377,-0.48392194509506226,-7.827068328857421,7.56537961959839
1746623503.3766453,-0.8613409996032715,-11.05930423736572,9.688012123107912
1746623503.7588017,0.5835337042808533,-8.587318420410156,5.4838199615478525
1746623504.5172498,-1.3987343311309814,-8.6975622177124,7.838383197784425
1746623506.145921,0.9071237444877625,-5.57416009902954,4.177932262420655
1746623506.627423,0.9071237444877625,-5.57416009902954,4.177932262420655
1746623507.071815,0.9071237444877625,-5.57416009902954,4.177932262420655
1746623507.5073524,-0.12951986491680145,-9.276594161987305,7.022982120513917
1746623508.4284065,-0.0982225239276886,-11.174105644226072,8.854869842529299
1746623508.8499415,1.7679064273834229,-15.192622184753416,10.264716148376467
1746623509.3371356,1.7679064273834229,-15.192622184753416,10.264716148376467
1746623509.6931012,1.7679064273834229,-15.192622184753416,10.264716148376467
1746623509.731762,0.31890544295310974,-6.44903802871704,7.172651290893556
1746623509.7981393,1.2955936193466187,0.389765560626984,2.8608527183532715
1746623509.8447704,0.8400253057479858,-9.040013313293457,4.666494846343995
1746623509.8928285,-0.47440141439437866,-6.360578060150146,5.773160934448243
1746623509.9403934,-3.053661823272705,-15.907741546630858,10.870022773742678
1746623510.0012634,1.510966420173645,-1.0056806802749627,5.3071980476379395
1746623510.0486047,-0.9724907875061035,-13.594871520996094,6.901073932647707
1746623510.0984268,0.9578932523727417,-1.0708717107772823,3.718632459640503
1746623510.1377609,-3.1094250679016113,-11.694675445556639,8.653263092041017
1746623510.1776445,1.0854158401489258,-6.964951038360595,5.336144924163819
1746623510.228769,2.788872718811035,-3.0585603713989253,4.3621015548706055
1746623510.2683039,-0.8785130977630615,-13.147641181945799,8.738595962524416
1746623510.3083074,-1.43345046043396,-4.736403942108153,6.901299476623536
1746623510.360017,0.9168599843978882,-8.600536346435545,11.024046897888185
1746623510.4039323,-0.13760972023010254,-9.92378807067871,8.894689559936525
1746623510.451862,-0.09917497634887695,-10.06059169769287,7.257324695587159
1746623510.5063918,0.4562932252883911,-4.784169197082519,7.797729015350343
1746623510.5512598,0.5855816602706909,-10.693788528442381,9.721723556518556
1746623510.6011863,-2.6187047958374023,-10.025359153747557,9.2044734954834
1746623510.6540158,-3.7955360412597656,-18.297250747680664,10.318307876586916
1746623510.8582478,2.682333469390869,-3.315660238265991,0.7721458673477177
1746623510.8927162,-0.8425295352935791,-6.842208862304687,6.570801258087159
1746623510.9261415,-0.788333535194397,-8.654109001159668,3.9472064971923837
1746623510.9637644,2.0918898582458496,-4.106732368469237,6.5164246559143075
1746623510.9998386,1.3981528282165527,-7.137700557708739,9.10126781463623
1746623511.0313663,-1.0241512060165405,-22.69938468933105,18.690994262695316
1746623511.0784385,-2.5734317302703857,-13.734771728515623,8.783555030822756
1746623511.12084,-5.492240905761719,-8.562315940856932,7.4065580368042
1746623511.1594875,-0.0022336244583129883,-2.3674364089965816,5.308657169342041
1746623511.194186,-0.35468539595603943,-3.9238140583038326,4.815569877624513
1746623511.2397985,0.38986918330192566,-2.409622192382812,4.071803092956543
1746623511.2722666,-0.835227370262146,-7.528289794921874,5.286143302917481
1746623511.3102171,-0.825658917427063,-8.923814773559569,9.35412120819092
1746623511.3303418,-3.892566442489624,-21.014450073242184,15.867516517639162
1746623511.3536491,2.071373462677002,-6.650122165679931,7.428570270538331
1746623511.3689146,-0.6159267425537109,-13.74164581298828,12.623828887939455
1746623511.4813132,-1.5010600090026855,-9.912188529968262,6.011262893676759
1746623511.5464847,0.055508822202682495,-5.966207027435302,5.647627830505372
1746623511.643762,0.9052628874778748,-8.078465461730957,6.504267692565919
1746623511.7408612,-0.08030781149864197,-7.236829280853271,5.511372566223145
1746623511.8340712,2.899843215942383,-3.745545625686645,2.824581861495972
1746623511.9585218,1.5135301351547241,-2.879009246826171,6.02306604385376
1746623512.0252256,-0.30969351530075073,-6.401504516601562,4.185575485229493
1746623512.1390042,-0.46351897716522217,-7.333509922027587,4.005413055419923
1746623512.2169194,0.6794894933700562,-7.2676095962524405,7.598085880279542
1746623512.3131495,-0.40499502420425415,-8.538797378540039,5.862774372100831
1746623512.4321012,1.9208375215530396,-5.975049495697021,6.805769443511964
1746623512.5133865,1.126022219657898,-9.672303199768065,9.222009658813478
1746623512.6012883,-1.9851653575897217,-14.550164222717283,10.896376609802248
1746623512.6977327,-2.1830852031707764,-17.180469512939453,13.00944519042969
1746623512.7957914,-2.1853113174438477,-15.076116561889647,10.206601142883303
1746623512.917423,1.3568257093429565,-8.30518054962158,9.87736225128174
1746623512.9855607,-0.9753878116607666,-10.954626083374022,10.931697845458986
1746623513.0812783,-2.8261616230010986,-13.090837478637694,9.69062900543213
1746623513.1774662,0.3029864430427551,-7.176846504211425,8.727126121520996
1746623513.2734227,-1.389714002609253,-14.248301506042479,12.275001525878908
1746623513.713333,-3.2518863677978516,-14.860996246337889,9.322975158691408
1746623513.7562985,0.470148503780365,-12.399224281311033,8.952511787414553
1746623513.7907348,-0.4275784492492676,-16.810428619384766,12.023704528808596
1746623513.8167741,0.11663608253002167,-11.730729103088377,10.263063430786135
1746623513.8463757,-0.054954320192337036,-7.6084017753601065,7.227394104003907
1746623513.8838243,-0.1672201156616211,-5.58332061767578,8.652726173400879
1746623513.9544315,-2.1180038452148438,-10.20601463317871,7.729929924011231
1746623514.044671,0.6129380464553833,-10.175412178039549,9.528774261474611
1746623514.144101,-0.2584676742553711,-12.046191215515135,8.74642086029053
1746623514.2365992,-0.9802113175392151,-10.767991065979004,5.735165596008302
1746623514.354954,-1.4310979843139648,-10.782134056091309,7.018007755279542
1746623514.428121,0.5296626091003418,-10.139918327331541,8.78635597229004
1746623514.5239,-0.6239854097366333,-10.268648147583006,8.328190803527834
1746623514.6203845,0.29940876364707947,-7.173009395599364,7.59735918045044
1746623514.7159212,-1.5873727798461914,-10.193673133850096,7.2532129287719735
1746623514.8404412,-1.2160300016403198,-8.66018295288086,6.785309314727784
1746623514.914526,0.10811251401901245,-8.370475769042969,5.402845859527589
1746623515.0046585,1.97963547706604,-2.310876607894897,4.620290279388428
1746623515.1004941,0.592597246170044,-4.118137836456298,7.113823890686036
1746623515.1960335,-0.4786566197872162,-8.070352554321287,8.399015426635744
1746623515.3147178,-1.0550332069396973,-7.350975513458251,6.104986190795899
1746623515.388249,1.1218647956848145,-4.228888034820556,8.426668167114258
1746623515.4917395,-2.564462900161743,-9.552540779113768,7.561843872070313
1746623515.5802343,-2.4969024658203125,-12.029863357543944,7.861678123474123
1746623515.6760063,-0.48883485794067383,-11.793657302856444,7.657878875732424
1746623515.8015826,-0.4639752507209778,-9.690056800842285,5.177205562591554
1746623515.8699899,1.4186601638793945,-7.630743503570556,5.866194725036622
1746623515.9650908,0.03711220622062683,-8.57835292816162,7.669960498809815
1746623516.0673537,-1.2623769044876099,-8.812854766845703,6.590519428253175
1746623516.1559918,0.39120981097221375,-9.889307975769041,7.252549648284913
1746623516.2813125,-0.5549646615982056,-9.879613876342773,5.595162868499757
1746623516.3515973,-0.4307815730571747,-10.571948051452637,5.3197693824768075
1746623516.4449863,-0.3370038568973541,-8.885027885437012,4.977337360382081
1746623516.5450304,0.7788862586021423,-8.278200149536133,4.890082836151124
1746623516.6428754,1.7405037879943848,-3.759015083312988,5.0055627822875985
1746623516.7597785,3.109489917755127,-2.4850256443023673,6.0323944091796875
1746623516.830225,2.757925510406494,-5.149636268615722,6.681852340698243
1746623516.9261363,2.4358878135681152,-5.158576011657714,6.152045249938966
1746623517.0237453,2.0916781425476074,-8.715506553649902,4.364872932434083
1746623517.1158185,1.8772891759872437,-7.829840660095214,4.3364810943603525
1746623517.2348464,0.9573277235031128,-7.038632869720458,6.384550094604493
1746623517.3083105,2.3279457092285156,-5.2266268730163565,5.525094985961915
1746623517.4066067,1.9112515449523926,-5.330761432647704,6.840317726135255
1746623517.503039,2.6367523670196533,-5.267574787139892,6.625226020812989
1746623517.5996213,1.28692626953125,-5.3944549560546875,3.582346677780152
1746623517.723449,1.2099860906600952,-5.228951930999756,3.3060684204101567
1746623517.7908278,1.8676377534866333,-4.282492160797118,7.565500259399415
1746623517.886999,0.3493587374687195,-6.417193412780761,6.887147903442384
1746623517.9832032,1.3611576557159424,-4.305524826049804,5.675661563873292
1746623518.079348,-0.4801161587238312,0.3162316977977758,4.349137783050537
1746623518.1974447,-2.0753984451293945,-5.8217220306396475,6.637886047363282
1746623518.2708998,-0.7370112538337708,-12.992785453796385,8.679772377014162
1746623518.3669493,3.3790178298950195,-10.275542259216307,11.394444465637209
1746623518.463261,0.37155380845069885,-10.463520050048826,16.195755004882812
1746623518.5584917,-1.5811398029327393,-11.921435356140135,15.437684059143068
1746623518.6881235,-0.4801371097564697,-14.793897628784178,13.575537681579592
1746623518.7506049,-2.3974688053131104,-16.46895599365234,17.16713333129883
1746623518.847827,-3.0783424377441406,-11.672668457031248,8.384188652038576
1746623518.9433205,2.95358943939209,-6.412489891052245,8.718103408813477
1746623519.042803,0.8773044347763062,-5.328687667846679,9.284345626831055
1746623519.1579156,-2.915717363357544,-9.186353683471678,7.4860196113586435
1746623519.23129,-0.9061079025268555,-6.883919239044189,7.945661544799806
1746623519.3269804,-2.4215006828308105,-7.848149776458739,7.21767282485962
1746623519.4229739,1.0302027463912964,-5.4248948097228995,4.652635097503663
1746623519.5185385,-1.3838913440704346,-5.67883539199829,6.1617517471313485
1746623519.6430056,-0.35081747174263,-6.382119178771972,7.537939071655274
1746623519.7108445,-2.777653932571411,-12.877625465393065,14.672069549560549
1746623519.806634,-1.905107021331787,-11.58302307128906,15.917802810668947
1746623519.9028134,-1.985642671585083,-19.013957977294922,11.417434692382814
1746623519.9987676,-3.1698243618011475,-13.50485324859619,17.563499450683594
1746623520.1178052,-0.5714414119720459,-10.350894927978514,14.224534988403322
1746623520.1930392,-3.4459526538848877,-12.749141693115233,11.366651535034181
1746623520.2872622,-2.9514963626861572,-10.34794807434082,5.2683072090148935
1746623520.3842652,3.242943525314331,-1.812312006950378,4.050119876861572
1746623520.481077,-1.9519860744476318,-3.2134459018707267,7.341620445251465
1746623520.6052456,-0.7458668947219849,-5.821593761444091,7.3182926177978525
1746623520.6834552,0.7291460037231445,-3.833615303039551,1.2899044752120976
1746623520.7689402,3.5821919441223145,-3.419519662857055,4.888667583465576
1746623520.8695288,-2.8931541442871094,-4.3407244682312,5.907611846923829
1746623520.9626317,-2.2015221118927,-10.678480148315428,11.69826412200928
1746623521.0844417,-2.6084184646606445,-7.8568377494812,3.802732706069947
1746623521.1527581,1.8645756244659424,-3.81380820274353,4.919274806976319
1746623521.2493901,-0.8542002439498901,-6.683883190155028,8.025250434875488
1746623521.3695915,-2.7853198051452637,-12.762905120849608,13.199026107788088
1746623521.443608,-0.6064971685409546,-20.337881088256836,9.537857055664064
1746623521.5692387,-2.2821881771087646,-19.519184112548828,10.840580940246584
1746623521.6341422,-0.9780086278915405,-13.464143753051756,12.193492889404299
1746623521.730038,-2.664120674133301,-9.537132263183592,11.106797218322756
1746623521.8259025,-1.7387624979019165,-10.192006111145018,8.69604015350342
1746623521.9224489,0.24293945729732513,-4.491104125976562,8.90018081665039
1746623522.3801825,-1.7697255611419678,-3.5298748016357417,5.177108287811279
1746623522.4153323,-2.3031363487243652,-6.059467792510985,6.14887285232544
1746623522.4384313,-2.852039098739624,-15.608585357666014,13.569181442260744
1746623522.4579997,-0.08057296276092529,-8.930163383483887,3.964623451232911
1746623522.4815743,3.892775774002075,-5.776350498199463,2.434025764465333
1746623522.5276241,-3.031325340270996,-3.4153172969818106,6.201443672180176
1746623522.59545,-0.6182265281677246,-7.9769248962402335,7.013583660125733
1746623522.6907125,-1.1992137432098389,-7.908329486846923,8.712266921997072
1746623522.7888677,2.625708818435669,-6.57579469680786,5.499956130981446
1746623522.882454,3.7401561737060547,-2.5522966384887686,6.170093059539795
1746623523.0012853,-0.8329833745956421,-4.388359069824218,7.65769910812378
1746623523.0746708,-0.4762503206729889,-11.042933464050291,11.445585250854494
1746623523.1704974,-2.3201069831848145,-6.821993350982665,5.808623790740968
1746623523.266888,1.37419855594635,-8.233501434326172,2.9580187797546396
1746623523.3627656,-1.4189767837524414,-7.687517166137694,5.427382469177247
1746623523.4918754,-3.0826287269592285,-10.340723037719725,8.678807258605959
1746623523.5544865,-2.8670947551727295,-5.433759212493896,4.557680606842042
1746623523.655301,-0.8909951448440552,-7.351062774658202,8.324260711669924
1746623523.746399,-2.180943250656128,-9.3081693649292,1.9685391187667858
1746623523.8462589,-2.399096727371216,-5.700080394744872,4.402335166931153
1746623523.9617445,-2.692645311355591,-10.067538261413572,11.604230880737306
1746623524.0351968,2.0513336658477783,-7.66933536529541,1.5233724117279062
1746623524.147195,-1.5617095232009888,-7.126208782196044,5.739609718322755
1746623524.227183,-3.1863205432891846,-10.484539985656738,6.364337921142579
1746623524.3224757,0.25226253271102905,-3.5402324199676505,8.148180961608887
1746623524.446906,-2.0662686824798584,-12.396264076232908,13.264366149902346
1746623524.5146446,0.7094969153404236,-5.962769031524657,4.571308612823487
1746623524.6105292,-3.357611894607544,-8.475893020629881,10.144066810607912
1746623524.706672,-2.35970139503479,-3.2107031345367423,5.760488986968994
1746623524.8035407,3.111025810241699,-0.025841243565082776,-1.8320097923278809
1746623524.9213965,-3.5940778255462646,-5.629195690155028,10.794404983520508
1746623524.9956033,-5.370451927185059,-9.667757034301756,12.327718734741213
1746623525.095248,1.0408658981323242,-5.605216979980469,-0.06476602703332833
1746623525.1900454,0.2701701521873474,-5.461430072784423,8.344277381896973
1746623525.300066,-1.8415565490722656,-8.176281929016112,10.551731109619142
1746623525.4073193,-3.1567459106445312,-11.632000923156737,7.28776788711548
1746623525.4764159,-0.8281235694885254,-12.241938591003416,12.991985321044924
1746623525.573745,-2.373584032058716,-14.85008907318115,8.817081451416017
1746623525.6695542,-1.65396249294281,-9.79604721069336,5.8826355934143075
1746623525.766035,2.126309394836426,-3.54591417312622,8.3950777053833
1746623525.8861184,-3.7596685886383057,-14.086773872375487,10.501549720764162
1746623525.961792,-1.5896451473236084,-12.54123783111572,12.217534065246584
1746623526.0542338,-1.624717354774475,-10.822610855102539,6.3809289932250985
1746623526.1503463,2.1714529991149902,-5.965435504913329,7.891257286071778
1746623526.2457683,-0.5829528570175171,-12.249897956848143,12.782517433166506
1746623526.3813086,0.9984375238418579,-8.325530052185059,6.309309005737306
1746623526.4412918,-0.5643054246902466,-16.890195846557617,12.702349662780763
1746623526.5353851,-0.6643695831298828,-8.79929256439209,5.521891593933106
1746623526.6309595,2.5323448181152344,-5.003607749938964,7.73487138748169
1746623526.7265673,-0.24798327684402466,-6.8637423515319815,5.496760368347169
1746623526.8450334,-0.7124806642532349,-8.379210472106934,4.552965164184571
1746623526.9268131,2.4149842262268066,-8.0301513671875,6.317459106445313
1746623527.0128534,0.6194576025009155,-5.979143619537353,6.220199584960938
1746623527.1084714,1.5075503587722778,-6.848495006561278,7.032098293304444
1746623527.2045248,-1.1310646533966064,-8.81163215637207,6.106283187866212
1746623527.3289363,5.199479579925537,-2.0307011604309078,4.442412376403809
1746623527.3976047,3.406327962875366,-0.6326692104339593,5.625479698181152
1746623527.4924254,2.0551772117614746,-2.9475617408752437,5.268790245056152
1746623527.5891747,1.1268302202224731,-6.698397159576415,6.982165813446046
1746623527.6879,0.13945066928863525,-6.298840999603271,6.202436923980714
1746623527.8149626,-0.5635936260223389,-9.299006462097168,6.159264564514161
1746623527.8794684,1.1080656051635742,-10.005733489990234,5.197994232177735
1746623527.976401,0.2460782527923584,-2.952932119369506,5.740886688232422
1746623528.07159,1.1609067916870117,-5.9054269790649405,5.906335353851319
1746623528.1675577,0.6142591834068298,-8.019701004028319,8.766796112060549
1746623528.2940466,-1.10538649559021,-11.263157844543455,7.893214702606203
1746623528.3596964,3.2127342224121094,-4.383897304534911,8.796079635620117
1746623528.4559088,0.5785996913909912,-6.614403247833251,8.29516315460205
1746623528.813344,0.4787185788154602,-10.765567779541014,8.40116882324219
1746623528.8516052,-1.8994457721710205,-15.024667739868162,11.139045715332033
1746623528.8708737,1.1884362697601318,-10.130667686462402,7.1622610092163095
1746623528.9059696,-0.11466413736343384,-6.854752540588378,8.553132057189941
1746623528.9352245,0.621334969997406,-8.20668315887451,7.47146224975586
1746623529.0321765,-1.083836317062378,-9.82429313659668,5.919785976409913
1746623529.128024,-1.0903396606445312,-9.715946197509764,9.221219062805178
1746623529.251768,-0.6874231100082397,-11.594218254089354,7.739848136901857
1746623529.3194425,1.8517742156982422,-7.408387660980224,8.08571243286133
1746623529.415302,0.6594905257225037,-5.597918510437011,6.839825153350831
1746623529.53683,3.354630470275879,-5.517746925354003,8.206670761108398
1746623529.611837,1.1914867162704468,-5.480892658233642,7.511467456817628
1746623529.7263048,0.5548866391181946,-10.941511154174803,11.301589012145998
1746623529.8000457,-0.9541574716567993,-8.735902786254881,7.956565380096436
1746623529.8988788,0.25650420784950256,-10.473615646362305,5.280811786651612
1746623529.9941397,1.7996522188186646,-4.260637283325194,8.977760314941406
1746623530.0892103,0.6130374670028687,-4.516169548034667,9.149944305419922
1746623530.213715,-0.1732783317565918,-7.181922912597655,7.86663579940796
1746623530.2933526,0.918997049331665,-9.212859153747557,8.691641807556154
1746623530.378065,-1.8562222719192505,-12.993175506591795,10.928071022033693
1746623530.4736135,-2.098705530166626,-14.07288074493408,9.473138809204103
1746623530.5692694,0.09164722263813019,-14.526658058166502,9.654850006103517
1746623530.6881568,-0.03397431969642639,-8.906372070312498,9.614160537719728
1746623530.7753775,-0.5349597930908203,-10.21031093597412,9.373085975646974
1746623530.8574195,0.9938437938690186,-5.80152416229248,9.27818489074707
1746623530.9547498,1.0765289068222046,-10.006349563598631,8.27974033355713
1746623531.061618,1.8082976341247559,-16.163179397583008,11.37349605560303
1746623531.1841547,-0.40269726514816284,-15.316435813903807,10.953907966613771
1746623531.244719,1.828781008720398,-11.644133567810057,10.275367736816408
1746623531.348862,2.213810443878174,-14.689201354980467,13.24836826324463
1746623531.4335065,1.732167363166809,-12.422565460205076,11.767849922180178
1746623531.529629,0.29996246099472046,-10.731323242187498,9.19207286834717
1746623531.6483307,0.44547706842422485,-11.105764389038084,9.826854705810549
1746623531.7217512,3.4300007820129395,-4.986759185791015,4.851738452911378
1746623531.8174875,-0.33710846304893494,-11.665177345275877,7.357855319976808
1746623531.9132473,-0.07110130786895752,-11.085614204406737,9.691079139709474
1746623532.0224595,2.1957039833068848,-10.301198959350584,7.353885173797608
1746623532.1334462,-0.8297978639602661,-11.86148929595947,8.590209007263185
1746623532.2022972,-0.3007943630218506,-10.939538002014158,10.330528259277346
1746623532.2981906,0.5779223442077637,-10.953441619873045,9.900858879089357
1746623532.3988492,-0.42317184805870056,-12.059112548828123,8.357319831848146
1746623532.490591,1.041290521621704,-8.0013370513916,9.054697990417482
1746623532.6099467,1.2247419357299805,-10.033222198486326,9.532417297363283
1746623532.682543,-0.8098821640014648,-12.468885421752928,9.256622314453127
1746623532.785959,-0.8287299871444702,-15.804722785949705,13.58638095855713
1746623532.8742065,-1.5473546981811523,-11.646962165832518,10.954898834228517
1746623533.0294735,2.682248592376709,-6.569602966308593,7.69977903366089
1746623533.0959537,1.897620677947998,-6.388936042785644,4.579299926757813
1746623533.162171,4.862869739532471,-3.827433347702026,4.688069343566895
1746623533.2593493,-1.1754578351974487,-12.097052574157713,9.926016807556154
1746623533.3541183,-1.8517112731933594,-11.124365806579588,8.499339103698732
1746623533.4503663,0.8263071775436401,-4.103181838989257,6.903869628906251
1746623533.575607,-1.276596188545227,-12.351670265197752,8.223997116088869
1746623533.6433613,1.1678355932235718,-18.23796844482422,9.952548027038576
1746623533.7416637,-2.550917625427246,-9.243690490722654,10.889945030212404
1746623533.8363914,-2.037914752960205,-8.377227783203123,9.320877075195314
1746623533.9318905,-0.7493321895599365,-8.96938705444336,5.738329887390138
1746623534.0559072,-3.1232640743255615,-6.045390129089355,7.7327942848205575
1746623534.12399,-3.718905448913574,-13.248601913452147,11.50944519042969
1746623534.21925,2.555588960647583,-3.1023774147033683,5.613702297210693
1746623534.3155627,-1.3917399644851685,-8.05041790008545,6.181431770324708
1746623534.4122546,2.7036077976226807,-8.50346851348877,4.630459785461427
1746623534.5336723,-1.1502374410629272,-11.018238067626951,8.08232879638672
1746623534.6036499,-1.9726313352584839,-11.141995429992676,4.55723285675049
1746623534.6998863,-2.482515335083008,-6.87820243835449,11.366342544555664
1746623534.8020797,-2.357201099395752,-8.73533248901367,10.906301498413088
1746623534.8921144,-2.829296112060547,-9.957035064697264,11.605809211730959
1746623535.0156243,-3.104015827178955,-8.511107444763184,5.859732627868653
1746623535.0839403,-2.9938786029815674,-9.728925704956053,8.52741050720215
1746623535.179161,-4.771419525146484,-11.684528350830076,16.573688507080078
1746623535.2757955,-6.863523483276367,-19.56767654418945,21.084325790405277
1746623535.3728228,-2.302694320678711,-11.82248783111572,8.571641921997072
1746623535.5109115,-1.905266523361206,-6.378124237060546,6.596270084381104
1746623535.6011767,0.6517320275306702,-7.144752979278564,7.521746635437013
1746623535.6607208,-0.47026264667510986,-0.2559223473072051,1.0305010080337524
1746623535.756204,1.6737487316131592,-5.438513278961181,6.008958816528321
1746623535.8531618,-1.9224307537078857,-12.48640727996826,14.742794036865236
1746623535.9872303,0.9469654560089111,-10.327988624572754,6.6800808906555185
1746623536.0446384,-1.6858521699905396,-10.903635025024414,6.899336814880373
1746623536.144413,-0.4979638159275055,-13.392265319824217,8.204393386840822
1746623536.236429,-1.2043249607086182,-10.402818679809569,10.276260375976564
1746623536.3326938,-0.807033896446228,-7.607363700866698,6.37948226928711
1746623536.4508271,0.09295675158500671,-7.461328983306884,6.165758609771729
1746623536.5247009,1.0665637254714966,-6.299628257751464,7.241828918457032
1746623536.620653,-0.2412491738796234,-9.074036598205565,7.905578613281251
1746623536.7167065,-0.8728485107421875,-8.397746086120605,4.264766216278077
1746623536.8157127,-0.5307748317718506,-10.383398056030272,7.61104440689087
1746623536.9401355,-1.3768318891525269,-9.28792381286621,7.958890438079835
1746623537.0073047,-2.2723686695098877,-7.105312824249267,4.842814922332765
1746623537.1057289,-1.4249861240386963,-9.931576728820799,7.826019287109376
1746623537.2388988,0.3109234869480133,-5.940814971923827,7.604148864746095
1746623537.2952738,-0.21819496154785156,-10.759148597717283,8.160569190979006
1746623537.71715,-0.06250801682472229,-8.22100830078125,5.107691764831544
1746623537.7558277,-0.35254842042922974,-10.146982192993162,7.50353765487671
1746623537.7992818,0.6650530099868774,-9.364928245544434,6.917476177215577
1746623537.822075,1.7604352235794067,-4.01667308807373,5.982836246490479
1746623537.8425088,1.4667696952819824,-7.281949996948241,6.453374385833741
1746623537.9007425,0.8755851984024048,-9.757952690124512,6.737783432006837
1746623537.9742475,1.3944587707519531,-8.163991928100586,6.9522953033447275
1746623538.0628774,1.8903552293777466,-6.393643856048583,5.053598403930665
1746623538.1589992,2.0378799438476562,-8.376191139221191,5.618994712829591
1746623538.2553904,2.915557622909546,-2.6779007911682124,5.113400459289551
1746623538.3828604,2.014305353164673,-5.855246067047118,6.003965854644776
1746623538.4476297,1.9406929016113281,-6.482133865356444,4.754257678985597
1746623538.544346,2.7378287315368652,-5.426859378814696,6.579292297363282
1746623538.6422577,2.4185259342193604,-4.690666198730468,6.002798557281495
1746623538.7364423,2.9282124042510986,-3.6303839683532706,6.045722484588624
1746623538.8605638,1.2540568113327026,-5.849002838134765,5.323652267456056
1746623538.926124,2.152172803878784,-2.8918485641479488,4.75283145904541
1746623539.0226793,2.121826648712158,-5.26149559020996,4.448682785034181
1746623539.1211336,1.5515400171279907,-6.645843505859374,5.126498222351075
1746623539.2169113,1.1650328636169434,-5.145206451416015,4.533165931701661
1746623539.335958,1.4333733320236206,-3.7297766208648677,4.09816074371338
1746623539.409037,2.069056510925293,-1.6087672710418695,5.176680088043213
1746623539.5049653,1.3255939483642578,-9.067524909973145,5.880120754241944
1746623539.6012363,1.1604238748550415,-5.951166629791259,5.795391559600831
1746623539.7060971,0.42118310928344727,-10.87590980529785,9.105929374694826
1746623539.825604,-0.03209233283996582,-9.205921173095701,8.197371482849123
1746623539.9041033,-0.42398324608802795,-11.269064903259276,9.957839012145998
1746623539.9854038,-0.508673906326294,-13.835292816162108,10.314693450927736
1746623540.0812442,-0.46318408846855164,-15.585088729858397,12.251523017883303
1746623540.1769445,-1.3558528423309326,-10.575105667114256,9.839442253112795
1746623540.2996428,0.6264660358428955,-6.833329200744628,6.38329029083252
1746623540.3773434,1.4556446075439453,-4.750506401062011,7.001096725463868
1746623540.4812634,0.45429152250289917,-4.109048843383788,7.608385562896729
1746623540.5613425,-0.5707342028617859,-10.27372074127197,7.267100334167481
1746623540.6569152,0.2706080675125122,-9.121172904968262,5.825678825378419
1746623540.7868829,-0.21095210313796997,-6.343178272247314,7.520192623138429
1746623540.8512292,-0.6984091401100159,-12.269245147705076,10.011486053466799
1746623540.945186,-0.6265661716461182,-15.150500297546385,10.69926166534424
1746623541.0446274,-0.7142019271850586,-10.954161643981932,9.205655097961428
1746623541.1403828,-1.4285019636154175,-16.914587020874023,14.095417976379396
1746623541.2559223,-0.8563239574432373,-15.242312431335447,9.641447067260744
1746623541.33068,-0.02663281559944153,-7.317665576934814,6.825877189636231
1746623541.426289,0.35128507018089294,-7.567668914794921,8.546330451965334
1746623541.5222056,-0.820094108581543,-9.868550300598145,6.327238082885743
1746623541.6180904,-0.20861855149269104,-5.54107904434204,6.548782825469972
1746623541.7422173,0.34310898184776306,-8.81019592285156,8.376013755798342
1746623541.8099313,0.4210145175457001,-6.853982925415038,6.293175220489503
1746623541.9061549,-0.9834905862808228,-10.62402820587158,7.902224063873292
1746623542.0016594,-2.090869665145874,-13.060938835144041,10.806632041931154
1746623542.1040866,-0.7308610677719116,-11.106496810913084,9.894678115844728
1746623542.2165685,0.4779583513736725,-9.361216545104979,7.8678956031799325
1746623542.2897131,0.7022348046302795,-7.719771862030028,8.266134262084963
1746623542.3866785,-1.2056207656860352,-11.20014953613281,8.620288848876955
1746623542.4826164,-0.047971755266189575,-10.451640129089354,9.185282707214357
1746623542.5786397,0.964448094367981,-4.024281501770019,7.925566196441651
1746623542.7024763,0.9230600595474243,-3.791658401489257,6.393720149993897
1746623542.7719228,-0.4599955976009369,-11.109465599060057,8.947523117065431
1746623542.866439,-0.9677947759628296,-10.553989410400389,10.175786018371584
1746623542.9621992,0.4592269957065582,-8.838910102844237,8.569998741149904
1746623543.0580735,0.44362902641296387,-11.540929794311522,12.431252479553224
1746623543.1833804,0.20246315002441406,-13.115124702453612,11.509495735168459
1746623543.2521253,0.25329452753067017,-13.196319580078123,12.248146057128908
1746623543.3516219,0.9217551350593567,-15.993833541870115,11.49824905395508
1746623543.4763162,0.8680919408798218,-10.0995397567749,10.391367912292482
1746623543.5462196,1.1995985507965088,-13.095322608947752,10.614688873291017
1746623543.6637068,0.6117877960205078,-10.199286460876463,10.702087402343752
1746623543.7314932,0.5496991872787476,-10.967190742492674,9.40962886810303
1746623543.8275123,1.1171499490737915,-11.325280189514158,10.758729934692385
1746623543.9227219,-0.0689440369606018,-7.233078479766845,8.867977142333984
1746623544.0187976,0.7934955954551697,-6.753822326660155,7.725633144378663
1746623544.1378572,0.5111408233642578,-6.408465862274169,7.713397026062013
1746623544.2107959,0.3178173899650574,-9.04459476470947,7.604781150817872
1746623544.30702,2.4610812664031982,-13.205848693847654,9.99275588989258
1746623544.4026146,0.6025817394256592,-12.135207176208494,12.028028488159181
1746623544.499352,-0.23839256167411804,-14.45217990875244,14.218327522277834
1746623544.816502,-0.515345573425293,-16.910314559936523,14.030118942260744
1746623544.8518202,-0.5451517105102539,-17.75007438659668,14.36188316345215
1746623544.871721,0.4400651454925537,-15.171730041503904,9.58865261077881
1746623544.9074926,-0.11875376105308533,-8.02058219909668,6.334736347198487
1746623544.9817083,0.124286949634552,-5.887598514556884,7.841114521026612
1746623545.1004074,0.874065637588501,-4.031126976013183,7.710871696472169
1746623545.1744921,-0.5468387603759766,-3.6227355003356925,7.220071315765381
1746623545.2704844,-0.6052396297454834,-9.765567779541014,8.444908142089846
1746623545.3661978,-1.5181361436843872,-14.414013862609862,10.27992916107178
1746623545.4619174,-0.907562255859375,-7.028245449066161,9.189664840698242
1746623545.5907342,-0.9896820187568665,-10.106166839599608,10.882076263427736
1746623545.6540096,-0.9472245573997498,-10.02101135253906,8.87899971008301
1746623545.750015,-1.806959629058838,-12.770287513732908,10.30082130432129
1746623545.8485706,-1.7809009552001953,-13.46872043609619,8.64725685119629
1746623545.942013,-1.0700733661651611,-8.117729187011717,10.633111953735353
1746623546.0609677,-1.512695550918579,-13.413700103759766,6.749146461486818
1746623546.1342554,-0.6812524795532227,-7.587451934814452,7.664395332336427
1746623546.23021,-1.2750455141067505,-11.147254943847656,6.632225513458254
1746623546.326168,-1.3274096250534058,-11.25991630554199,9.165173530578615
1746623546.4218123,-0.7637413740158081,-10.653653144836424,9.023168563842775
1746623546.5458899,0.6289500594139099,-4.387705326080321,6.263833522796632
1746623546.6151621,-0.9510731101036072,-10.882683753967285,7.091265201568605
1746623546.7104893,-0.8117316365242004,-10.828338623046873,7.848355770111085
1746623546.806893,-1.0657800436019897,-10.330450057983398,7.1415114402771005
1746623546.9074194,1.1899946928024292,-4.312935829162597,5.593580245971681
1746623547.0212262,-0.7318425178527832,-8.754945755004883,5.6405911445617685
1746623547.09476,-0.4767242968082428,-11.03623867034912,8.521545410156252
1746623547.1912212,0.6973241567611694,-6.472371101379394,6.396891117095948
1746623547.2865531,-0.11656329035758972,-8.758033752441406,5.631996154785157
1746623547.3832033,-0.4437163770198822,-11.70305824279785,8.037857055664064
1746623547.5071628,0.5430355072021484,-8.251882553100586,5.839735507965089
1746623547.5756168,0.7259995937347412,-9.65803050994873,6.123464107513429
1746623547.6706688,0.39884650707244873,-8.71756362915039,5.929857730865479
1746623547.7672694,2.0751423835754395,-2.0496923923492423,6.398126602172852
1746623547.8627875,1.024080514907837,-3.414566040039062,2.6112153530120854
1746623547.986902,2.744546890258789,-0.619095921516418,3.393592596054077
1746623548.0544908,1.5722953081130981,-4.482361316680908,1.414478182792664
1746623548.1518638,-0.18737512826919556,-2.047629356384277,2.7183206081390385
1746623548.2505722,1.269152045249939,-4.956017971038818,1.634676098823548
1746623548.3457124,0.8375120759010315,-7.250250339508056,5.4198694229125985
1746623548.4758472,0.3446904718875885,-9.760195732116697,10.027527809143068
1746623548.5367947,0.06665390729904175,-6.870482921600341,5.228655338287354
1746623548.6331732,-1.3698978424072266,-8.098859786987305,6.301603794097901
1746623548.7291167,0.5530722141265869,-6.656196117401122,8.460384368896484
1746623548.8245535,-1.173940896987915,-9.529881477355957,6.695238113403321
1746623548.9620905,-1.0177257061004639,-10.792472839355467,8.38650417327881
1746623549.017163,-1.5642776489257812,-11.881425857543944,9.341006278991701
1746623549.1132681,-1.0628502368927002,-8.509230613708496,6.213180541992188
1746623549.20906,-0.8524588942527771,-10.845966339111326,8.340264320373537
1746623549.3051724,-0.30179673433303833,-9.89884281158447,7.891900539398194
1746623549.4294937,0.2112945318222046,-8.703306198120117,5.0408339500427255
1746623549.5091913,-0.974061131477356,-10.348496437072752,7.73626470565796
1746623549.592618,0.34463590383529663,-8.283817291259764,9.019097328186037
1746623549.690543,-0.6032448410987854,-7.501169204711913,5.403403282165528
1746623549.783921,0.14931437373161316,-9.719629287719725,8.379565238952638
1746623549.9055429,0.27566835284233093,-7.731343746185302,8.275632858276369
1746623549.9758492,0.0006795823574066162,-8.765583992004395,6.156705856323243
1746623550.071828,0.27780506014823914,-9.851879119873045,8.47993850708008
1746623550.168263,1.1737291812896729,-5.753376483917235,7.5935635566711435
1746623550.2634308,1.338200569152832,-8.69822597503662,7.738359451293946
1746623550.3930447,0.08569216728210449,-7.946314334869384,6.080770015716554
1746623550.4558656,1.0925928354263306,-7.109991550445556,6.216208934783936
1746623550.5554955,-0.005005538463592529,-9.31438159942627,6.9547367095947275
1746623550.650837,0.6155804395675659,-8.334220886230469,5.544319152832032
1746623550.7493699,1.0497565269470215,-9.34056282043457,6.542807579040528
1746623550.8723404,2.2870965003967285,-4.196834087371825,6.718533515930177
1746623550.9386876,1.0419604778289795,-9.669732093811033,7.5059266090393075
1746623551.0380192,1.8567544221878052,-1.0886297225952144,4.0202436447143555
1746623551.130987,1.5585492849349976,-2.823933839797973,1.8880726099014287
1746623551.2265854,3.3456544876098633,-1.8415232896804803,4.7671637535095215
1746623551.3512402,1.5211900472640991,-5.796939373016357,3.223555326461793
1746623551.4188025,1.2603956460952759,-5.505184650421142,6.6120033264160165
1746623551.5181153,1.020694375038147,-9.968355178833008,6.241893768310548
1746623551.611502,1.0664863586425781,-9.345384597778319,8.034707069396974
1746623551.706411,1.8087999820709229,-5.830476760864257,5.703426361083985
1746623551.826646,-0.5300201177597046,-10.996423721313475,8.270567893981935
1746623551.8984435,0.8640962839126587,-5.251444339752196,6.431313037872315
1746623551.994488,0.4263712465763092,-10.06723690032959,7.0154972076416025
1746623552.091355,0.3393329381942749,-6.947710514068603,7.688992500305177
1746623552.1874452,-0.4402657449245453,-12.954696655273436,9.885523796081545
1746623552.3120217,0.4844374358654022,-11.59177780151367,10.154262542724611
1746623552.3795547,1.32260000705719,-12.004167556762694,10.597449302673342
1746623552.475657,-0.6763864755630493,-12.045376777648924,8.790739059448244
1746623552.5719242,1.250068187713623,-10.110232353210447,8.646249771118166
1746623552.671816,-0.6089588403701782,-13.301983833312987,8.995652198791506
1746623552.7889898,0.44678717851638794,-7.668034076690673,5.3479089736938485
1746623552.8773289,-0.1809602677822113,-6.432274341583251,6.665290355682374
1746623553.1146815,5.465353488922119,-3.129036664962768,2.0140099525451665
1746623553.2768233,0.532076358795166,-0.6499764919281,4.895532131195068
1746623553.3817284,6.126521110534668,-0.03404221683740657,-3.3423852920532227
1746623553.452014,1.1684755086898804,-3.3887820243835445,4.672626972198486
1746623553.506298,1.3923674821853638,-6.973029136657714,4.754191398620606
1746623553.6033921,0.8346068263053894,-6.271794319152831,7.3905301094055185
1746623553.7006514,1.5910181999206543,-7.206767082214355,8.165929794311523
1746623553.7822766,2.5117321014404297,-7.506098747253417,8.372338294982912
1746623553.843196,-0.3531753122806549,-7.218842983245849,9.375097274780273
1746623553.9329617,3.363666534423828,-6.587624073028564,4.164822578430177
1746623553.9715672,-0.6925690174102783,-12.869460105895994,11.499176025390627
1746623554.0198848,2.4723880290985107,-6.859744071960448,7.343882083892823
1746623554.1127954,1.4385536909103394,-10.56042957305908,9.830297470092775
1746623554.2365355,-1.958321213722229,-9.803150177001951,8.168689727783205
1746623554.315437,-0.2842637598514557,-8.642333030700682,8.14352321624756
1746623554.4091866,0.12922778725624084,-6.598296642303466,8.158337593078613
1746623554.4935615,0.2896158993244171,-8.598104476928711,5.585280418395997
1746623554.8713562,0.38365212082862854,-8.11493396759033,8.67619323730469
1746623554.9539113,3.431887149810791,-0.8924410939216616,-1.7164440155029297
1746623555.0530355,-0.7854670286178589,-3.1997632980346675,5.286108493804932
1746623555.1186461,1.2071009874343872,-0.8734976649284356,5.3785505294799805
1746623555.1558633,-1.2737293243408203,-6.63523769378662,5.76465940475464
1746623555.1973321,0.8705987334251404,-7.39267873764038,7.884231567382813
1746623555.2191699,4.765069961547852,-4.87794542312622,4.584215641021729
1746623555.2651694,0.20107872784137726,-8.782060623168944,9.987890243530275
1746623555.3639736,1.1249992847442627,-8.80930709838867,8.990784645080568
1746623555.4578106,-1.2957829236984253,-11.532045364379881,7.851407051086428
1746623555.551538,-1.193202257156372,-14.707526206970213,9.562561035156252
1746623555.67799,-3.491586923599243,-10.476419448852537,10.583433151245119
1746623556.0084002,-0.8776544332504272,-13.598476409912108,9.25408172607422
1746623556.1090932,-3.29060697555542,-9.270830154418945,6.583657741546632
1746623556.2194788,2.8679842948913574,-3.456570386886596,5.8340582847595215
1746623556.4046395,0.9712876081466675,-8.782212257385252,9.538254737854006
1746623556.4763286,1.424094796180725,-6.328195571899413,5.924828052520753
1746623556.6115665,-0.7981770038604736,-8.642654418945312,4.082148075103761
1746623556.6958673,-1.7940268516540527,-5.101850032806396,6.9903345108032235
1746623556.75478,-0.9096096754074097,-4.246072769165038,3.7533128261566167
1746623556.8314419,1.7414917945861816,0.1062510460615161,2.374563694000244
1746623556.8854625,2.637157917022705,-3.8032588958740234,0.3862559795379643
1746623556.960462,-1.4488413333892822,-4.186450958251952,8.852933883666992
1746623557.0176013,-1.1107767820358276,-12.419800758361815,11.07903289794922
1746623557.2013123,-2.098734140396118,-16.022478103637695,11.104518890380861
1746623557.2222424,-1.369775414466858,-15.033050537109373,13.22957515716553
1746623557.2544239,0.01139482855796814,-11.283857345581053,13.714076995849611
1746623557.275517,-1.1114753484725952,-16.05780601501465,12.44193744659424
1746623557.2897217,0.5858917236328125,-8.536369323730467,10.972560882568361
1746623557.3743665,-0.9611362218856812,-12.071111679077147,8.557582855224611
1746623557.4707532,0.7195948958396912,-6.886335849761962,9.583283424377441
1746623557.5935028,0.9928780794143677,-13.06110095977783,12.144801139831545
1746623557.662426,-0.924474835395813,-10.895359992980955,11.728769302368166
1746623557.762742,0.2970085144042969,-12.587343215942381,10.752955436706545
1746623557.8545487,-0.4988611042499542,-11.630956649780272,8.483819007873537
1746623557.954442,0.485451877117157,-14.308133125305174,11.428909301757814
1746623558.0839145,-0.7468149662017822,-13.510864257812498,12.155713081359865
1746623558.1462994,2.4104557037353516,-7.308217048645019,10.630840301513674
1746623558.2411027,-1.346935510635376,-16.403739929199215,15.009999275207521
1746623558.335131,3.521707773208618,-6.2473154067993155,7.5885329246521005
1746623558.433746,-0.5812523365020752,-15.197011947631834,10.544977188110353
1746623558.549717,1.195915937423706,-9.50032329559326,8.697635650634767
1746623558.6259186,-1.2848231792449951,-13.419701576232908,9.427978515625002
1746623558.721721,-0.04313477873802185,-14.376011848449705,13.028069496154787
1746623558.8177133,1.1741431951522827,-12.30921936035156,9.219285964965822
1746623558.914371,0.06432163715362549,-7.820847034454344,11.28985118865967
1746623559.037508,-0.5975159406661987,-16.33818817138672,13.827590942382814
1746623559.1188433,3.0632691383361816,-7.230696201324462,10.302874565124512
1746623559.2022955,-2.9766623973846436,-18.17030143737793,12.746734619140627
1746623559.2986479,0.7942770719528198,-13.55725860595703,9.810459136962892
1746623559.3933244,-2.370655059814453,-15.547310829162596,14.484194755554201
1746623559.5120003,0.15296602249145508,-14.555027961730955,15.166609764099123
1746623559.5862277,-4.437023162841797,-19.00628852844238,15.566495895385744
1746623559.6811378,-3.386148452758789,-20.346443176269528,16.0723991394043
1746623559.7838645,-3.03239107131958,-21.341804504394528,15.007924079895021
1746623559.8736064,-3.2396140098571777,-18.63176727294922,13.404937744140627
1746623560.0028384,-3.373944044113159,-15.599939346313475,12.615721702575685
1746623560.065599,2.077037811279297,-5.327322483062743,7.146939277648927
1746623560.1610107,-0.4632774591445923,-13.547483444213865,10.409951210021974
1746623560.2573767,2.4929592609405518,-4.654202938079833,5.358325004577638
1746623560.3536403,-2.024900436401367,-10.728659629821776,8.305697441101076
1746623560.4831645,-1.942138433456421,-8.458984374999998,7.70113754272461
1746623560.5455701,-1.5045032501220703,-9.033068656921387,3.8935370445251474
1746623560.6437674,-1.0516548156738281,-9.457669258117674,9.223043441772463
1746623560.740576,-1.093991994857788,-4.9594454765319815,7.946322441101075
1746623560.833816,-0.8831482529640198,-9.497384071350096,7.484786033630372
1746623560.9576206,-0.49370741844177246,-0.7514461874961845,5.929530143737793
1746623561.0251563,0.3379589319229126,-4.586664676666259,7.5123353004455575
1746623561.1213195,-1.7179021835327148,-8.469058990478516,6.97911548614502
1746623561.2171688,-1.9235968589782715,-7.543691635131835,8.632873535156252
1746623561.3141458,-5.550349235534668,-7.8611388206481925,9.469083786010744
1746623561.43546,-3.5332462787628174,-16.80644416809082,11.38871765136719
1746623561.5055845,-5.200985908508301,-24.15229225158691,16.60350608825684
1746623561.6601877,-2.5477359294891357,-23.41365814208984,14.927475929260257
1746623561.697446,-1.8941612243652344,-12.024464607238768,14.106953620910646
1746623561.7939363,2.540677785873413,-1.736442565917968,4.77689266204834
1746623561.9176462,0.8555076718330383,-5.964146614074706,6.2294659614563
1746623561.9860418,-1.9488136768341064,-3.9808552265167227,6.674846172332765
1746623562.082382,2.7320594787597656,-1.9483526945114134,1.9102861881256106
1746623562.178512,1.2809617519378662,-4.62180995941162,8.099079132080078
1746623562.2741451,3.7987663745880127,-4.862245082855224,4.532891750335694
1746623562.3930118,-1.0219684839248657,-7.128853321075439,3.7261364459991464
1746623562.4665625,-0.40697893500328064,-4.880009174346923,7.831263065338136
1746623562.5624242,-1.9563924074172974,-7.568144798278808,7.473928928375245
1746623562.6584725,0.12708482146263123,-6.522529125213622,7.624724864959718
1746623562.754602,3.8866212368011475,-4.782984256744385,1.7039080858230597
1746623562.8889246,0.46082744002342224,-3.659857273101806,5.403558254241944
1746623562.9466944,-2.824065923690796,-3.7108135223388663,7.38861894607544
1746623563.04559,-2.7001919746398926,-10.365930557250975,9.418339729309084
1746623563.146201,-1.1679085493087769,-3.9398438930511466,8.630476951599121
1746623563.2375612,5.80369758605957,-2.4509270191192627,-0.4151054620742795
1746623563.3563132,-4.611822605133057,-8.239300727844237,10.150853157043459
1746623563.4294443,3.3856472969055176,-7.856902122497559,3.237943887710572
1746623563.5253851,0.10909494757652283,-10.598889350891112,10.51015377044678
1746623563.621383,2.2778780460357666,-7.05926752090454,8.797691345214844
1746623563.7175279,1.0307354927062988,-8.167410850524902,5.084032535552979
1746623563.8414402,0.762182354927063,-7.763197422027587,8.225380897521974
1746623563.9101584,1.224463701248169,-7.336932659149169,4.919027328491212
1746623564.005281,-1.4943751096725464,-10.438142776489258,5.59658432006836
1746623564.1012018,-3.5173659324645996,-9.024080276489256,8.007118225097658
1746623564.19732,2.268338203430176,-5.7043490409851065,8.45532512664795
1746623564.3166516,-1.2731047868728638,-6.716649532318114,10.31966781616211
1746623564.3892777,-1.796669840812683,-8.144188880920408,11.218485832214357
1746623564.4856837,0.6409169435501099,-7.142423152923583,5.204480648040772
1746623564.581029,-1.9078458547592163,-11.600679397583006,11.01680374145508
1746623564.6774235,-2.740603446960449,-8.447579383850096,9.218224525451662
1746623564.8019915,2.403080940246582,-3.502608060836791,6.416759014129639
1746623564.8691921,1.5429859161376953,-8.50461196899414,7.182441234588624
1746623564.9655092,2.218201160430908,-4.478868961334228,6.362993240356446
1746623565.0617964,-0.12995612621307373,-7.869722843170166,2.3705101013183603
1746623565.160874,-1.5440399646759033,-13.980064392089842,10.641368865966799
1746623565.2818167,0.19536253809928894,-10.460095405578612,9.350612640380861
1746623565.349756,-0.4648262858390808,-9.80099105834961,6.725574970245362
1746623565.4992926,-2.1092090606689453,-9.548675537109375,6.2441139221191415
1746623565.5444572,-1.7134884595870972,-10.868871688842772,8.419651031494142
1746623565.642725,1.9331923723220825,-6.95436143875122,4.758885860443116
1746623565.761651,-1.0894140005111694,-7.841444969177245,6.396641731262208
1746623565.829166,0.40922439098358154,-10.451738357543944,8.432943344116213
1746623565.9252512,0.23868918418884277,-4.476013183593749,6.661144256591798
1746623566.021603,2.0218868255615234,-8.068832397460936,7.871124744415284
1746623566.117061,0.34307020902633667,-6.901571750640869,0.5271664261817941
1746623566.2359042,0.866855263710022,-6.371037483215331,5.786597728729249
1746623566.3102934,-0.04334494471549988,-10.985880851745605,6.03803062438965
1746623566.406007,0.6387991905212402,-6.120839595794677,8.537093162536621
1746623566.5021472,1.0562857389450073,-11.432921409606934,6.688294410705568
1746623566.5981836,-0.006381779909133911,-2.6944084167480464,3.282894849777222
1746623566.7223113,1.478115439414978,-5.992083549499511,3.7800803184509286
1746623566.7907805,2.278749942779541,-6.732151985168457,3.4668169021606454
1746623566.8862689,2.9900712966918945,-4.544919490814208,7.091853618621827
1746623566.981969,-0.09365123510360718,-7.723050117492675,7.463432788848878
1746623567.0789614,2.221736431121826,-7.626447677612304,7.769184112548829
1746623567.1981514,4.404808521270752,-3.0899543762207022,6.128963470458984
1746623567.2713163,2.651468276977539,-4.554502010345458,7.027109146118165
1746623567.3684335,0.8181495666503906,-6.9590063095092765,5.566411495208741
1746623567.464816,0.5781805515289307,-9.164095878601074,5.949626445770265
1746623567.561134,2.6008975505828857,-4.732379436492919,8.866337776184082
1746623567.6927578,1.0918289422988892,-4.320415973663329,4.129380702972413
1746623567.7636397,1.9046434164047241,-9.329063415527344,6.603442192077638
1746623567.9185636,3.079578399658203,-10.773461341857908,10.960995674133303
1746623567.9481359,-0.6173425912857056,-5.342082977294921,4.816011905670167
1746623568.0422702,0.784531831741333,0.29730373620986933,-0.29721772670745855
1746623568.1589234,3.4354395866394043,-3.084639310836792,0.04558172821998634
1746623568.23212,0.6698105335235596,-10.385165214538572,9.633876800537111
1746623568.3320816,0.9545602202415466,-13.13224411010742,10.536128997802736
1746623568.424263,-0.34649407863616943,-12.125349044799803,7.966363430023195
1746623568.5199893,3.009909152984619,-7.985480785369872,7.088429927825929
1746623568.6458616,2.1983437538146973,-8.70024585723877,6.180889129638673
1746623568.7244186,2.3193359375,-0.26540616154670693,1.9651856422424316
1746623568.8080215,2.067254066467285,-4.248034477233887,1.236546397209168
1746623568.9041321,3.899963140487671,-0.14986610412597617,3.127751588821411
1746623569.0007887,3.006584882736206,-0.975442111492157,0.10131086409091962
1746623569.1190102,2.3765201568603516,-4.300778388977051,3.2394149303436284
1746623569.1921682,1.6784217357635498,-9.18562126159668,5.858380317687989
1746623569.2885702,2.173243284225464,-6.22657823562622,5.3089590072631845
1746623569.3840072,1.5966339111328125,-16.34258270263672,12.860526084899904
1746623569.4799623,0.4174836575984955,-11.901355743408201,10.446826934814455
1746623569.6046607,2.643709659576416,-2.7520074844360347,2.8716619014739995
1746623569.6731966,1.142212152481079,-5.631379604339599,7.0806241035461435
1746623569.7682402,-0.3336615562438965,-8.126787185668945,6.477159023284913
1746623569.867765,0.6888287663459778,-8.959226608276365,9.635733604431154
1746623569.9631538,-1.1016871929168701,-11.333583831787108,8.08114814758301
1746623570.083621,-1.1741902828216553,-8.252546310424803,10.140319824218752
1746623570.155604,0.2352239042520523,-11.649906158447264,11.24240303039551
1746623570.2512476,0.7198013067245483,-6.746492862701415,4.670546531677247
1746623570.3475952,-0.7814047336578369,-7.186729431152343,5.999393939971925
1746623570.448354,0.7916028499603271,-5.080833911895751,8.37905502319336
1746623570.5745654,0.2290554791688919,-9.338498115539549,9.406108856201174
1746623570.6355436,1.7704342603683472,-4.458552837371825,3.8450043201446538
1746623570.8119068,-1.5672736167907715,-6.020883560180663,6.295936107635499
1746623570.827935,-3.4239933490753174,-8.968856811523436,10.342567443847658
1746623570.9211416,0.379495769739151,-7.556904315948485,3.892730474472047
1746623571.0400488,-2.564798355102539,-5.814772129058837,8.387707710266113
1746623571.1159668,3.3002777099609375,-1.301906824111938,3.124687433242798
1746623571.2131932,-0.03615182638168335,-7.87286615371704,7.65151071548462
1746623571.3083563,1.230270266532898,-7.143947124481201,2.3928875923156747
1746623571.4038975,-2.0032870769500732,-7.71855592727661,8.05697822570801
1746623571.5287983,-1.8798561096191406,-6.989562511444091,5.761624336242677
1746623571.5966818,-2.046703577041626,-2.5762200355529776,8.178284645080566
1746623571.6918135,-1.3832035064697266,-5.274201869964599,9.256892204284668
1746623571.788117,-1.906360387802124,-10.378071784973143,12.24351501464844
1746623571.884208,0.44616591930389404,-6.07652711868286,7.320026874542237
1746623572.0021973,-0.9339484572410583,-15.003634452819822,10.281151771545412
1746623572.075942,-4.07671594619751,-12.642415046691893,12.602325439453127
1746623572.1718903,1.7606489658355713,-11.450709342956541,7.809795856475832
1746623572.2718325,-2.6571192741394043,-19.869295120239258,13.260434150695803
1746623572.3663626,-1.6292011737823486,-12.22297477722168,6.918817043304445
1746623572.4930778,-0.07832211256027222,-8.928984642028807,8.699316978454592
1746623572.5559797,0.5513640642166138,-9.546467781066893,8.974825859069826
1746623572.6520514,-7.59804630279541,-19.12408638000488,16.36978340148926
1746623572.8822987,1.2462071180343628,-12.664872169494627,12.000190734863283
1746623572.9050753,-0.3495534360408783,-11.764461517333983,9.928519248962404
1746623572.9746323,-1.3878263235092163,-12.97128105163574,9.839942932128908
1746623573.0369084,-0.9525629281997681,-0.7628930211067195,3.6042463779449463
1746623573.1328113,-3.05462908744812,-6.673219203948974,8.659000396728516
1746623573.2286763,-2.1556718349456787,-4.923424243927001,4.049878120422364
1746623573.324559,-0.22092905640602112,-8.68053340911865,11.721782684326174
1746623573.4485736,0.8519370555877686,-3.1658105850219718,5.628608226776123
1746623573.516608,-0.8343895673751831,-10.055751800537108,11.028911590576174
1746623573.613272,-1.140652060508728,3.504828453063965,0.9428122043609615
1746623573.7086542,-0.27561047673225403,-2.4728283882141113,-0.29451173543930026
1746623573.8047676,-2.297973871231079,-3.8578698635101314,4.36952304840088
1746623573.9234943,-1.8303170204162598,-6.485928535461425,9.26483154296875
1746623573.9972785,-1.5159986019134521,-11.157007217407225,8.11257839202881
1746623574.0929644,-1.3675050735473633,-5.006269931793213,0.7147927284240729
1746623574.1891534,-1.1105905771255493,-7.802550315856933,8.659446716308596
1746623574.2840748,-1.6936900615692139,-8.891453742980957,3.8968515396118173
1746623574.4083683,-1.072068452835083,-10.480895042419432,9.649883270263674
1746623574.4773047,-2.8453967571258545,-15.532528877258299,9.822751045227053
1746623574.5813763,-1.918633222579956,-15.025902748107908,9.336932182312013
1746623574.6686733,-0.8942161798477173,-10.393605232238768,9.244849205017092
1746623574.7664852,-2.568308115005493,-4.226750850677489,7.367243766784669
1746623574.8885894,-1.8934825658798218,-7.536494731903075,6.210321903228761
1746623574.9579322,-1.8951685428619385,-7.4668798446655265,8.539868354797365
1746623575.0544577,-1.1390661001205444,-9.182084083557127,9.037866592407228
1746623575.1575067,-1.3471277952194214,-8.261720657348631,8.91764259338379
1746623575.247574,0.37576916813850403,-8.954025268554688,4.316375255584718
1746623575.3802943,-0.4701174199581146,-2.4891643524169913,5.84639310836792
1746623575.438504,-0.8322179317474365,-9.255772590637205,8.651113510131838
1746623575.5342991,0.3013565242290497,-8.03076171875,3.261688232421876
1746623575.630374,0.6529635190963745,-6.546034336090087,4.944556713104249
1746623575.7259202,-0.5006846189498901,-0.44808000326156533,6.838496208190918
1746623575.844866,-0.14108216762542725,-5.5067734718322745,7.297639846801759
1746623575.917912,0.7626855373382568,-7.528778553009032,5.414151668548585
1746623576.020466,-0.07559198141098022,-4.6681785583496085,5.56574296951294
1746623576.110798,1.3796279430389404,-2.5378582477569576,5.093088150024414
1746623576.2074332,0.18737152218818665,-10.486042022705078,5.976829528808595
1746623576.362444,1.042185664176941,-8.746471405029297,4.793978691101075
1746623576.3982034,1.224763035774231,-2.4104938507080074,5.214869976043701
1746623576.4940767,1.1139971017837524,-2.8733577728271475,5.839382171630859
1746623576.5942104,1.8503813743591309,-4.306199550628661,6.074179649353028
1746623576.6857684,1.2964411973953247,-9.416505813598633,4.263575077056886
1746623576.8139932,0.9670959711074829,-11.290517807006836,5.660447120666506
1746623576.8836005,1.3625777959823608,-8.667752265930176,4.873820304870606
1746623576.9769804,0.859440267086029,-4.577283859252929,7.416474342346192
1746623577.0733292,1.6057403087615967,-11.686762809753418,5.408705711364748
1746623577.168954,1.3886523246765137,-5.714621067047118,5.529872417449952
1746623577.2930727,1.0327047109603882,-4.629941463470458,6.450382709503175
1746623577.3615758,0.18501590192317963,-3.6796245574951163,6.815936088562013
1746623577.4567893,1.2079529762268066,-7.784118175506591,3.776989221572877
1746623577.5509932,1.0535207986831665,-8.574381828308105,3.1609115600585946
1746623577.6466079,0.6625167727470398,-3.5603086948394767,6.076231002807617
1746623577.7796853,0.4902656078338623,-3.198617219924926,5.439602375030518
1746623577.8418329,-0.39457061886787415,-7.186856746673583,5.951356887817384
1746623577.938153,-0.4097262918949127,-7.446510314941405,6.533348083496095
1746623578.0342855,0.6435421705245972,-3.4433250427246085,5.630234718322754
1746623578.1321254,-0.2383405864238739,-3.069401502609252,6.317544937133789
1746623578.3500822,-0.1517464816570282,-3.7347400188446036,7.302078723907472
1746623578.3962443,0.11088833212852478,-7.950067520141601,6.887712001800538
1746623578.4215193,0.5970551371574402,-4.696751117706298,5.626605987548829
1746623578.5122106,-0.7799718379974365,-12.194930076599121,7.129756450653078
1746623578.6077483,0.5032299757003784,-11.416810989379881,8.903942108154299
1746623578.726324,-0.25732657313346863,-7.485035896301269,6.196792125701905
1746623578.7996795,-1.9682854413986206,-10.02123165130615,8.596235275268556
1746623578.8981397,-0.053004056215286255,-11.183881759643555,7.120003223419191
1746623578.992935,-0.546965479850769,-10.889018058776854,9.8546199798584
1746623579.0971375,-0.4206714928150177,-7.259805679321288,7.106265544891358
1746623579.2129257,0.36499327421188354,-12.13825511932373,6.397386550903322
1746623579.2804844,-0.3103368580341339,-7.957588672637939,6.580193519592286
1746623579.3767455,0.5310040712356567,-3.6540358066558833,4.2037367820739755
1746623579.6798532,0.372313916683197,-9.729253768920898,5.323778152465821
1746623579.7247503,-0.3792015612125397,-8.177610397338867,7.018998622894288
1746623579.739851,0.7104209661483765,-2.6445827484130855,3.7951095104217534
1746623579.7697477,0.4210395812988281,-10.412382125854492,5.335373401641847
1746623579.8637288,-0.8223246335983276,-10.442073822021483,8.582225799560549
1746623579.9992406,-0.6496403217315674,-6.054210662841796,5.41325855255127
1746623580.0495672,0.05367305874824524,-9.890228271484375,6.05553960800171
1746623580.180637,-0.2538284361362457,-5.163923740386962,4.803046226501466
1746623580.2440114,0.08341479301452637,-6.532712936401366,5.376301288604737
1746623580.3435087,-0.7428545951843262,-11.728915214538574,5.719093322753908
1746623580.4402208,0.09043356776237488,-8.154494285583496,6.031882286071778
1746623580.5529444,-0.38488057255744934,-4.946773052215575,6.124415397644044
1746623580.6556087,-0.27558884024620056,-5.452184200286864,7.05852508544922
1746623580.7238452,-0.5989277362823486,-10.27077007293701,8.528491973876955
1746623580.8196132,-0.11921349167823792,-5.60591697692871,7.374543190002442
1746623580.9165976,-0.4898703992366791,-5.722613811492919,6.823822021484376
1746623581.0122404,0.28799134492874146,-9.340234756469727,5.987983703613282
1746623581.1361246,0.36250483989715576,-4.649207592010497,5.118126869201661
1746623581.2057679,-0.7490566968917847,-4.252868652343749,5.19438123703003
1746623581.299795,0.42188704013824463,-8.48342514038086,6.080409526824952
1746623581.3960314,-0.07501929998397827,-4.66246747970581,5.464309215545655
1746623581.491445,-0.07070410251617432,-3.0126004219055167,5.766289710998535
1746623581.610098,-0.38606974482536316,-8.81660747528076,7.377558708190919
1746623581.6844573,-0.2656475603580475,-5.147409439086913,5.597610950469972
1746623582.076977,-0.32036092877388,-4.835199356079101,7.484604835510255
1746623582.1229222,0.4018365442752838,-9.282721519470215,7.233094215393067
1746623582.14671,-0.36436983942985535,-6.04268980026245,6.4916677474975595
1746623582.1683228,-0.9992038011550903,-3.6960108280181876,8.162238121032715
1746623582.1822565,-0.3698921501636505,-8.434824943542479,8.56347179412842
1746623582.260356,1.0074197053909302,-2.687898397445678,6.99959659576416
1746623582.3547971,-0.37099042534828186,-12.693728446960447,8.126809120178224
1746623582.4534383,0.5317133069038391,-8.78898525238037,7.73273515701294
1746623582.5786104,0.3414135277271271,-5.1658296585083,5.558377742767335
1746623582.6457608,-0.9707686901092529,-9.840960502624512,6.8631582260131845
1746623582.7576146,0.8084057569503784,-9.719304084777832,4.247570991516114
1746623582.8583612,-0.23636052012443542,-9.302785873413086,7.2361798286438
1746623582.9338064,0.048261672258377075,-2.6687574386596675,3.2106213569641118
1746623583.0582404,-0.026387006044387817,-12.921570777893065,8.966156005859377
1746623583.126297,-2.70120906829834,-14.562218666076658,12.309189796447756
1746623583.2226286,-2.335683584213257,-8.256696701049803,9.492703437805178
1746623583.318191,-2.1554787158966064,-9.908641815185545,10.090708732604982
1746623583.4133704,-2.246958017349243,-7.216965675354003,10.289384841918945
1746623583.5325913,-0.34183788299560547,-4.471761226654053,1.835047006607056
1746623583.6074507,-1.1739113330841064,0.1651955097913749,5.733965873718262
1746623583.7017312,-0.5954629182815552,4.5305657386779785,-0.35149708390235956
1746623583.7978635,-1.0024566650390625,-4.851324558258057,2.571356534957886
1746623584.0379834,-1.7884068489074707,2.887367725372314,-2.4958338737487797
1746623584.0683846,-0.26763418316841125,-2.9958610534667964,3.3598122596740727
1746623584.094499,-3.335303783416748,-3.0415852069854727,5.867298126220703
1746623584.1815684,-1.5489990711212158,-4.744374275207519,6.453667163848878
1746623584.2775147,-3.0326414108276367,-10.70935344696045,5.985673904418946
1746623584.373628,-2.9229073524475098,-10.337298393249512,6.6441359519958505
1746623584.4921706,-3.3455169200897217,-10.11631107330322,8.298534393310549
1746623584.565337,-4.098435878753662,-8.39668083190918,6.981629371643067
1746623584.6625578,-4.637420177459717,-17.194705963134762,16.422018051147464
1746623584.7582562,-2.237466335296631,-13.875035285949705,9.568835258483888
1746623584.8535683,-3.3766088485717773,-14.90475273132324,14.611148834228517
1746623585.1182156,-2.641563892364502,-8.123270988464354,9.618011474609377
1746623585.1378036,-1.0186686515808105,-6.028518199920654,2.444627761840821
1746623585.1641793,-1.4745421409606934,-6.7186336517333975,4.767484188079835
1746623585.274465,-0.8394485712051392,-11.361116409301758,5.995728969573976
1746623585.3575826,-1.290548324584961,-8.252721786499022,7.544774055480958
1746623585.5126858,-2.385293483734131,-9.94654083251953,8.78101444244385
1746623585.5642478,-0.5043509006500244,-1.929834842681884,5.950700759887695
1746623585.625865,-1.8533052206039429,-9.579715728759766,6.8038063049316415
1746623585.72213,-1.2303717136383057,-9.20787715911865,8.842635154724123
1746623585.8842418,-0.7631295919418335,0.19885632395744393,5.695706844329834
1746623585.9434361,-0.1851675808429718,-7.892074584960937,5.213514328002931
1746623586.008878,-1.3159223794937134,-3.9047203063964835,6.600951671600343
1746623586.1054628,-1.467667579650879,-9.681691169738768,9.146794319152834
1746623586.202447,-0.7089459896087646,-4.28835105895996,6.87938404083252
1746623586.2971456,-0.9561914205551147,-8.159444808959961,4.344075202941895
1746623586.4165282,-0.30284151434898376,-9.059761047363281,6.711033821105958
1746623586.4901173,-1.99567449092865,-10.825010299682615,7.4490113258361825
1746623586.5857873,-0.6079791784286499,-10.543416023254393,8.044342041015627
1746623586.6827464,-0.7845698595046997,-5.146832942962646,7.005298614501954
1746623586.7867954,-0.22008392214775085,-8.427558898925781,6.050269126892091
1746623586.901722,-0.664313554763794,-2.7852098941802974,4.99598503112793
1746623586.9721437,-1.394874095916748,-7.130493164062499,7.661094188690186
1746623587.0673075,-0.09872201085090637,-9.099875450134276,8.658525466918947
1746623587.2018535,-1.8196744918823242,-5.984789848327636,7.907680034637452
1746623587.2642188,-0.4155476689338684,-6.193673133850098,3.482717752456666
1746623587.3866215,-2.047008752822876,-9.063443183898924,9.154205322265627
1746623587.461719,0.21975566446781158,-9.440590858459473,5.912733554840089
1746623587.5473397,-1.7999924421310425,-18.152389526367188,11.913926124572756
1746623587.6937978,-1.330752968788147,-10.81630229949951,7.860840797424317
1746623587.7463224,-0.5849676132202148,-10.060795783996582,6.874024391174317
1746623587.8612912,-0.7206466197967529,-8.52151298522949,8.023832321166994
1746623587.9403007,-0.9340170621871948,-8.202752113342283,9.815254211425783
1746623588.0276077,-1.231318473815918,-11.595059394836424,8.840098381042482
1746623588.122551,-0.9650497436523438,-8.875779151916502,8.616165161132814
1746623588.219393,-0.7794549465179443,-8.602519989013672,6.927006721496583
1746623588.3921592,-0.21715161204338074,-2.9449632167816153,5.792386531829834
1746623588.4240496,-0.06630063056945801,-1.76587963104248,3.8302552700042725
1746623588.5071785,-0.32073336839675903,-4.877856731414795,1.9777612686157233
1746623588.6104996,-0.2669445276260376,0.14824433624744476,4.95944356918335
1746623588.6992176,-1.2277708053588867,-3.289162635803222,5.298666000366211
1746623588.827492,-1.357872724533081,-11.812629699707031,6.78933906555176
1746623588.8916926,-1.868910551071167,-5.632965087890624,8.107927322387695
1746623589.003546,-0.23823195695877075,-5.236550807952881,2.677789926528931
1746623589.086256,-2.0150043964385986,-5.053008079528808,6.807317733764649
1746623589.1794736,-0.1553448736667633,-3.778595924377441,3.3452594280242924
1746623589.3696306,0.020833820104599,-5.920813560485839,4.45368528366089
1746623589.3852353,-0.34662720561027527,-8.145639419555664,5.031829357147218
1746623589.4709349,-1.5485827922821045,-6.044402599334716,6.442437648773194
1746623589.563861,-0.17786291241645813,-9.672333717346191,5.526466846466065
1746623589.6654778,-1.5145310163497925,-10.296534538269041,7.371882438659669
1746623589.7894287,-0.24255186319351196,-6.363309383392333,6.225458621978761
1746623589.8530962,-2.2984066009521484,-9.55808353424072,8.045688629150392
1746623589.9544888,0.09975317120552063,-7.2814879417419425,4.245444297790528
1746623590.0454762,0.2554616928100586,-3.0760414600372306,6.079631805419922
1746623590.1443071,-0.8291270732879639,-4.738539695739746,3.071734428405762
1746623590.2592657,0.3720177412033081,-8.166604995727539,6.644662857055665
1746623590.330396,-1.0846494436264038,-5.938401699066161,7.474182128906251
1746623590.429916,-0.3767525255680084,-4.963817596435546,6.216661930084229
1746623590.5255022,0.41177767515182495,-5.896764278411864,9.311595916748047
1746623590.6198742,-2.4470772743225098,-8.172075271606444,9.076800346374513
1746623590.742972,-1.6345431804656982,-11.070762634277342,9.831192016601564
1746623590.814895,-1.130786418914795,-11.879154205322264,8.487354278564455
1746623590.9074297,-0.952385663986206,-14.34684658050537,13.225564002990724
1746623591.0036669,-1.6098512411117554,-15.187813758850096,13.624183654785158
1746623591.1019046,-2.17323899269104,-15.293728828430174,12.493725776672365
1746623591.2176094,-0.4550001919269562,-7.788370609283446,9.206935882568361
1746623591.291779,-0.4237331449985504,-12.551564216613768,13.274481773376467
1746623591.3921452,0.03138542175292969,-16.213092803955078,14.408234596252443
1746623591.4834423,-0.9188908934593201,-11.632554054260252,10.702383995056154
1746623591.579887,-0.4427317976951599,-7.713947772979735,7.383532047271729
1746623591.7034085,0.0009923875331878662,-9.415165901184082,5.413453102111817
1746623591.7844625,0.3806144595146179,-8.014897346496582,6.793389320373536
1746623591.876717,0.032542794942855835,-9.726160049438475,9.816493034362795
1746623592.035676,-1.5094636678695679,-12.010192871093748,10.839034080505373
1746623592.0688565,-1.2731014490127563,-18.218807220458984,13.33698081970215
1746623592.1873786,-0.8524341583251953,-15.20159339904785,9.947575569152834
1746623592.2538278,-0.23433467745780945,-10.100571632385252,8.736316680908205
1746623592.3505988,-1.6012800931930542,-14.800391197204588,14.651172637939455
1746623592.4493763,-3.021848201751709,-13.9252872467041,11.580230712890627
1746623592.5487156,-2.0425820350646973,-15.75789451599121,12.080836296081545
1746623592.6733165,-2.6424641609191895,-18.615146636962887,15.381604194641115
1746623592.7351267,-4.102272033691406,-17.67957496643066,15.35968589782715
1746623592.8323507,-3.1444787979125977,-14.22815418243408,8.96621608734131
1746623592.925739,-2.1679253578186035,-26.958900451660153,22.202508926391605
1746623593.021309,-3.8734586238861084,-17.858503341674805,13.053016662597658
1746623593.1401713,-3.352383852005005,-10.19206428527832,6.941302299499513
1746623593.2133563,-1.3576526641845703,-13.056531906127928,8.861370086669924
1746623593.3096201,-2.016777992248535,-11.623698234558104,10.414131164550783
1746623593.405401,-0.41426119208335876,-9.256369590759277,6.252378463745118
1746623593.5016868,-1.2462633848190308,-10.667842864990233,8.471955299377443
1746623593.625886,-1.2968597412109375,-4.420883655548095,7.239606857299806
1746623593.6935112,-1.085904836654663,-5.676133155822753,6.124718666076661
1746623593.7916603,-1.3051276206970215,-4.976069450378417,7.373472213745118
1746623593.8853376,-3.162932872772217,-14.138298988342283,12.83455276489258
1746623593.9816062,-0.15876325964927673,-2.0820426940917964,3.414981603622437
1746623594.100193,-3.0934319496154785,-14.504745483398436,12.268901824951174
1746623594.1732705,0.19250579178333282,-6.9411559104919425,5.68079423904419
1746623594.2695417,-1.1727553606033325,-7.880056381225585,7.563758850097657
1746623594.3653808,0.038930416107177734,-8.621963500976562,5.565053462982179
1746623594.4852123,-0.25039181113243103,-9.635920524597168,6.995773315429688
1746623594.590489,-0.618645191192627,-6.826395988464355,5.95179843902588
1746623594.6534328,-0.04895663261413574,-7.518877983093261,3.6566767692565927
1746623594.7495482,0.4155673384666443,-8.677796363830566,5.8764286041259775
1746623594.847958,-0.671183168888092,-12.069302558898924,12.96951198577881
1746623594.943347,-1.6150836944580078,-11.893913269042967,10.044911384582521
1746623595.0668013,-0.5607962012290955,-11.582322120666502,8.595307350158693
1746623595.1343539,-1.8645148277282715,-10.664437294006346,7.892319679260255
1746623595.2327363,-1.7879302501678467,-8.17028522491455,6.686228275299073
1746623595.328484,-1.0697606801986694,-5.095411777496337,8.06884765625
1746623595.4242399,-1.5969923734664917,-9.077475547790527,5.692527770996095
1746623595.5489078,-2.1707074642181396,-6.867876529693603,9.556001663208008
1746623595.6166844,-2.45686674118042,-7.683202266693114,10.620580673217775
1746623595.7124295,-2.5586094856262207,-8.314465522766112,9.8670711517334
1746623595.8092372,-4.199619770050049,-12.026360511779783,11.95487689971924
1746623595.9079127,-2.0941433906555176,-17.579336166381836,13.18333148956299
1746623596.0558865,0.9121266603469849,-12.50415325164795,6.9594907760620135
1746623596.0964484,-3.4426398277282715,-9.115297317504881,8.35512161254883
1746623596.1922982,-1.6816858053207397,-10.71988773345947,8.683190345764162
1746623596.2885885,-3.1333234310150146,-9.93738555908203,8.570959091186525
1746623596.3841908,-2.5135576725006104,-6.198515892028808,6.106252193450929
1746623596.5086486,-1.4319777488708496,-9.597414016723633,6.751755714416505
1746623596.576508,-1.2715370655059814,-8.561397552490234,6.346106529235841
1746623596.6725888,-2.3647241592407227,-11.376732826232908,8.610338211059572
1746623596.7695165,-2.0279135704040527,-8.89322757720947,7.575916290283204
1746623596.866972,-1.5515296459197998,-5.896633625030517,4.803448677062989
1746623596.9886017,-1.9818507432937622,-6.912372589111327,5.412490367889405
1746623597.0559118,-2.664031982421875,-6.063323020935058,5.221750736236573
1746623597.1520283,-3.0040948390960693,-6.96171998977661,7.409974098205567
1746623597.2478023,-2.2291605472564697,-7.367656707763671,6.485234260559083
1746623597.3439126,-3.0320684909820557,-9.103318214416502,8.015173912048342
1746623597.4742641,-2.920654296875,-13.30929660797119,10.17347812652588
1746623597.5516493,-3.270977258682251,-13.163861274719237,10.226951599121096
1746623597.6322029,-3.3705079555511475,-13.628272056579588,10.61845397949219
1746623597.72795,-3.2662343978881836,-12.116190910339354,9.686605453491213
1746623597.8240612,-3.494218349456787,-10.908887863159178,8.254350662231447
1746623597.942676,-3.488675117492676,-14.020500183105467,10.523564338684084
1746623598.0157664,-3.555055856704712,-12.986960411071776,10.11597537994385
1746623598.1119993,-3.6964902877807617,-12.398250579833983,10.025315284729006
1746623598.2078109,-3.838332176208496,-10.59907531738281,9.325365066528322
1746623598.303873,-3.9296443462371826,-13.578917503356932,10.169365882873537
1746623598.4281263,-3.4785830974578857,-11.07172107696533,9.234026908874513
1746623598.4987245,-3.4056556224823,-10.805110931396483,9.194005966186525
1746623598.5946963,-2.916207790374756,-7.334057807922362,5.692830562591554
1746623598.69064,-3.369424819946289,-9.07852840423584,6.878303050994874
1746623598.7866733,-3.307753562927246,-10.45585250854492,7.547012329101563
1746623598.9051495,-2.7376389503479004,-7.385268211364745,6.469820499420167
1746623598.9785783,-3.2985339164733887,-11.1901159286499,8.816318511962892
1746623599.0747077,-3.0862956047058105,-14.07054805755615,10.513341903686525
1746623599.170939,-3.3371944427490234,-14.837268829345701,11.657819747924806
1746623599.266564,-3.9150490760803223,-11.943983078002928,9.495460510253908
1746623599.3907769,-3.4098668098449707,-10.644469261169432,9.005414962768556
1746623599.4585056,-3.2717103958129883,-11.26835250854492,9.122721672058107
1746623599.5545776,-3.3724184036254883,-15.46418762207031,12.900307655334474
1746623599.6509414,-3.157893180847168,-14.049794197082518,11.106422424316408
1746623599.7466023,-2.63602614402771,-11.70224094390869,8.703921318054201
1746623599.8714864,-2.4509832859039307,-10.134631156921385,8.609220504760744
1746623599.9388201,-2.2350592613220215,-7.8861985206603995,6.362129211425782
1746623600.03466,-1.933508038520813,-6.64487600326538,6.050886631011964
1746623600.1309707,-1.892091155052185,-5.955173969268798,5.406780242919923
1746623600.226739,-1.7135871648788452,-6.541535854339599,5.227283477783204
1746623600.3509107,-1.653215765953064,-8.2906494140625,6.432673931121827
1746623600.418689,-1.54276442527771,-8.717556953430176,6.899152755737306
1746623600.5146728,-1.4312243461608887,-9.57315444946289,6.768792629241944
1746623600.6106706,-1.275712251663208,-8.781399726867676,6.982026100158692
1746623600.7065263,-1.2330331802368164,-8.62412166595459,6.890719890594483
1746623600.825861,-1.0621206760406494,-8.7713041305542,6.917226791381837
1746623600.8987668,-1.112351417541504,-8.451735496520996,6.805297374725343
1746623600.9944923,-0.9267026782035828,-8.235917091369629,6.654819011688233
1746623601.090613,-1.0548374652862549,-7.213678359985351,6.058637619018556
1746623601.200902,-1.061083436012268,-6.575581073760985,5.581981658935548
1746623601.3109226,-1.0491856336593628,-7.407180786132812,5.970934391021729
1746623601.3797622,-1.0183123350143433,-7.7641048431396475,6.275251865386964
1746623601.4759681,-1.3025983572006226,-7.613482952117919,6.319511890411378
1746623601.5717864,-1.433801293373108,-6.950845718383788,5.803987503051759
1746623601.6677814,-1.4334958791732788,-8.626456260681152,6.670105457305909
1746623601.786695,-1.566011667251587,-8.609314918518066,6.689629077911378
1746623601.8599496,-1.5846749544143677,-9.518150329589842,7.373394489288331
1746623601.955815,-1.6146334409713745,-8.961435317993164,6.656360626220704
1746623602.0516129,-1.5893205404281616,-9.239068031311035,7.113615512847901
1746623602.1477535,-1.753905177116394,-7.597928047180175,5.926691532135011
1746623602.278973,-1.7029513120651245,-8.81397533416748,6.384495735168458
1746623602.3467,-1.866367220878601,-10.113983154296875,6.773670673370362
1746623602.4383698,-1.735901951789856,-9.113906860351562,6.356475830078126
1746623602.53191,-1.549516201019287,-10.625515937805174,8.398774147033693
1746623602.6284678,-1.5806920528411865,-11.358278274536131,8.59877681732178
1746623602.746266,-1.8438851833343506,-8.002997398376465,6.5318970680236825
1746623602.8197508,-1.6482000350952148,-8.836889266967773,6.803187847137452
1746623602.915804,-1.4758052825927734,-11.10834503173828,8.049090385437013
1746623603.0145352,-1.5182443857192993,-9.145418167114258,6.70976734161377
1746623603.1085474,-1.7788264751434326,-6.899911403656005,5.2595863342285165
1746623603.234232,-1.9414687156677246,-9.514245986938477,7.012780666351319
1746623603.3006866,-1.9457972049713135,-8.834871292114258,6.792898654937745
1746623603.3981075,-2.485766887664795,-8.443685531616211,6.055095195770265
1746623603.4938033,-2.112072467803955,-7.870337486267089,6.434094429016114
1746623603.5894752,-1.8780157566070557,-8.268928527832031,6.5675721168518075
1746623603.7088983,-2.072084426879883,-7.769976139068603,6.94603443145752
1746623603.7825568,-1.8382036685943604,-5.99287986755371,4.867753505706788
1746623603.8784184,-1.4884254932403564,-8.417817115783691,6.368515968322755
1746623603.9747539,-1.1824164390563965,-7.506179809570312,6.114646434783936
1746623604.0704203,-0.9876008033752441,-7.567400932312011,5.808320045471192
1746623604.194758,-1.2005003690719604,-8.254191398620605,6.694343090057374
1746623604.2627487,-1.313819408416748,-7.952136516571044,6.361012935638429
1746623604.358427,-1.0953624248504639,-7.7888097763061515,6.452562808990479
1746623604.4546661,-1.2754796743392944,-7.214317798614501,5.9714746475219735
1746623604.550398,-1.3809571266174316,-6.391425132751464,5.064629077911378
1746623604.673562,-1.0192134380340576,-5.819990158081054,5.1071414947509775
1746623604.7425675,-1.0850070714950562,-5.782002449035644,4.990783691406251
1746623604.8405612,-0.9479489326477051,-7.25646686553955,5.19870948791504
1746623604.9344935,-0.9531710147857666,-5.154133319854735,5.5881009101867685
1746623605.030603,-0.8577142953872681,-6.74512481689453,5.626328945159913
1746623605.1547837,-0.7912601232528687,-7.284928321838378,5.113145351409913
1746623605.2224576,-1.0715346336364746,-6.259347438812255,4.7309818267822275
1746623605.318332,-1.148660659790039,-5.521804332733153,4.904071331024171
1746623605.4143434,-0.7378727197647095,-5.738834857940673,5.103755474090577
1746623605.510544,-0.9779039621353149,-8.278429985046387,6.3664212226867685
1746623605.6293797,-1.3491857051849365,-8.334726333618164,6.454633712768556
1746623605.7024534,-1.6930499076843262,-9.466798782348633,6.983853340148927
1746623605.7984107,-1.7400121688842773,-8.046714782714844,6.5763611793518075
1746623605.8943195,-1.1086146831512451,-9.651490211486816,7.160226345062257
1746623605.9904892,-1.9531471729278564,-10.408312797546385,7.821433544158936
1746623606.1147726,-1.3245937824249268,-8.996476173400879,6.682765007019044
1746623606.182315,-1.5400445461273193,-7.614524841308593,6.703280448913575
1746623606.27864,-1.2485928535461426,-9.677021026611328,7.070251941680909
1746623606.3744297,-1.5898089408874512,-10.15728187561035,7.71544647216797
1746623606.4704578,-1.4211382865905762,-8.69705867767334,6.913427352905274
1746623606.5890782,-1.9232418537139893,-9.434292793273924,7.37628984451294
1746623606.6653817,-1.4922726154327393,-9.716150283813475,7.70841407775879
1746623606.7617295,-1.7095284461975098,-10.36336898803711,7.193756580352784
1746623606.8574982,-1.4325602054595947,-9.06912040710449,7.372919559478761
1746623606.955431,-1.2435094118118286,-9.596115112304686,7.7595887184143075
1746623607.084053,-0.9083738327026367,-8.81736660003662,7.850135326385499
1746623607.162372,-1.2165329456329346,-7.620783329010009,7.169347763061524
1746623607.2414787,0.6840949058532715,-8.870107650756836,5.982586383819581
1746623607.340259,-0.6166164875030518,-8.056969642639158,8.118529319763185
1746623607.4335861,0.3037548363208771,-9.279438018798826,7.747579574584962
1746623607.552191,0.025918513536453247,-8.84843349456787,7.466382026672364
1746623607.6254554,-0.34049826860427856,-10.092249870300291,9.261763572692873
1746623607.7214148,-0.53571617603302,-12.98138904571533,10.558242797851564
1746623607.8176048,0.11360888183116913,-12.874029159545897,8.13362216949463
1746623607.9133246,-0.17487043142318726,-9.070321083068846,12.058727264404299
1746623608.0380673,0.9118406772613525,-10.288825035095213,8.334517478942873
1746623608.105354,2.0715041160583496,-9.810767173767088,11.041007041931154
1746623608.2018151,1.6942362785339355,-9.865267753601072,9.541952133178713
1746623608.2974894,2.8716907501220703,-9.142962455749512,7.156104564666749
1746623608.3933058,4.737044811248779,-6.8028597831726065,6.413215637207032
1746623608.5130126,1.1601784229278564,-7.2209787368774405,7.917952537536622
1746623608.5863006,1.2901301383972168,-4.03629970550537,7.258239746093751
1746623608.682218,2.8446216583251953,-5.38835573196411,5.593076705932618
1746623608.7785587,0.710536777973175,-5.3207616806030265,8.13387393951416
1746623608.8743455,-1.254862666130066,-9.780435562133789,7.1784682273864755
1746623609.0034602,-0.893356442451477,-8.65663433074951,8.336204528808596
1746623609.0664322,-1.4985588788986206,-15.063944816589354,11.573470115661623
1746623609.1623845,-2.126011610031128,-17.48458671569824,18.38323783874512
1746623609.2584093,-4.907649517059326,-16.00466728210449,17.01791572570801
1746623609.354243,1.4929827451705933,-15.017919540405272,11.180760383605959
1746623609.478672,-1.7124907970428467,-13.709095954895018,9.188920974731447
1746623609.5466373,-2.5794427394866943,-12.136398315429686,7.352620124816896
1746623609.6422637,-0.9383338093757629,-8.587796211242676,6.012902259826661
1746623609.741188,-2.641871929168701,-5.218671321868896,6.279301643371583
1746623609.8358784,3.1069984436035156,-4.211331844329834,0.29579782485961964
1746623609.9598787,0.5044975280761719,-7.678428649902343,7.668566703796388
1746623610.0285757,-1.2762305736541748,-6.514129161834716,6.9556241035461435
1746623610.12334,-1.4795186519622803,-9.434931755065916,9.37679195404053
1746623610.2203815,-1.4410946369171143,-10.343676567077635,10.608010292053224
1746623610.316437,-3.046553611755371,-9.049118041992188,3.952320575714112
1746623610.4352708,-0.9697412252426147,-6.189421653747558,6.998197078704835
1746623610.5083392,-1.907227635383606,-7.895579814910888,10.38259029388428
1746623610.6044238,-1.763524055480957,-8.598435401916502,8.77941417694092
1746623610.700336,-0.15007814764976501,-4.388173103332519,6.752136230468751
1746623610.7965028,-4.369829177856445,-9.13400363922119,8.93477249145508
1746623610.9206562,-0.7621484994888306,-8.778597831726072,8.740254402160646
1746623610.988532,-0.8159338235855103,-5.059600830078124,8.792703628540039
1746623611.0846362,-2.632105588912964,-4.635253429412841,5.147100448608399
1746623611.1803632,-0.4334203898906708,-6.834752559661864,6.782554149627686
1746623611.2765005,1.274792194366455,-5.056884288787841,6.085741043090821
1746623611.3929935,-1.3744524717330933,-5.711710453033446,6.455739498138429
1746623611.4691932,-1.7726738452911377,-7.070815563201903,8.014370918273926
1746623611.5653102,-0.8033823370933533,-9.135418891906738,4.6491127014160165
1746623611.661317,-0.8516831994056702,-6.3560638427734375,3.212306737899781
1746623611.757409,1.3400592803955078,-6.035527229309081,6.601981163024903
1746623611.8857553,-2.1202049255371094,-9.750964164733885,8.321271896362306
1746623611.9491835,-0.21584945917129517,-6.933824539184569,6.544681072235108
1746623612.0434074,-0.05829340219497681,-10.957217216491697,10.582473754882814
1746623612.1423547,-1.6223719120025635,-5.625674247741698,10.21806526184082
1746623612.24072,-2.434201717376709,-4.5330171585083,5.066495895385743
1746623612.3538365,-0.8103265166282654,-8.414688110351562,4.872507572174073
1746623612.430893,-0.1467108130455017,-7.959133625030517,6.549923896789552
1746623612.5262995,0.19959212839603424,-5.906656742095946,8.770065307617188
1746623612.6225784,-0.4129776656627655,-0.8941503167152397,6.162873268127441
1746623612.718083,-4.160897254943848,-7.4555926322937,8.31249237060547
1746623612.8424294,-1.8523590564727783,-13.998120307922362,7.692078590393068
1746623612.910371,0.7958775758743286,-8.422966957092283,7.3069400787353525
1746623613.006203,0.7240316271781921,-7.338722229003905,7.919347286224366
1746623613.1023333,-3.065331220626831,-8.175923347473143,8.010641098022463
1746623613.1982422,-2.4444100856781006,-5.7281856536865225,7.47173309326172
1746623613.3167348,-2.2417378425598145,-12.045764923095701,10.208601951599123
1746623613.3900898,-0.8770065307617188,-15.6941442489624,9.41847324371338
1746623613.4861658,0.4578990936279297,-8.962320327758789,4.787003040313722
1746623613.5824208,0.17008529603481293,-1.8238978385925286,5.015880107879639
1746623613.6781437,0.5812576413154602,-3.360309123992919,6.893470287322998
1746623613.80515,-1.514899730682373,-9.451083183288572,11.44848155975342
1746623613.870291,0.4430699348449707,-4.5222082138061515,4.645844459533692
1746623613.9660833,0.6894515752792358,-11.765064239501951,8.207456588745119
1746623614.0622864,-0.6902222633361816,-18.30728530883789,13.305077552795412
1746623614.1581457,0.20588529109954834,-8.822549819946289,4.646771430969239
1746623614.2828915,-0.07107895612716675,-1.7157251834869378,6.020794868469238
1746623614.3503902,-0.1795264482498169,-5.587827205657958,7.58262586593628
1746623614.4462414,-2.433100700378418,-10.104977607727049,8.15145778656006
1746623614.5422647,0.6064468026161194,-9.65213680267334,4.283136844635011
1746623614.6407773,-1.3889433145523071,-15.162243843078612,10.363832473754885
1746623614.7627447,-2.2321670055389404,-5.5624117851257315,4.566227436065675
1746623614.8303993,-1.6530901193618774,-0.3961865901947013,6.852142810821533
1746623614.9260082,-2.047433376312256,0.8750967383384705,0.05706938728690137
1746623615.0220056,-0.6436067819595337,3.576446294784546,0.26959258317947343
1746623615.1182973,-2.3772945404052734,-3.99884295463562,0.408579289913178
1746623615.237035,-2.622703790664673,-10.125568389892576,8.7175350189209
1746623615.310092,-2.4255216121673584,-10.050139427185059,6.121610164642335
1746623615.4061413,-1.6291277408599854,-13.15870666503906,8.02731227874756
1746623615.5020926,-1.9603934288024902,-8.071686744689941,6.378786563873292
1746623615.5982485,-1.822770118713379,-10.762253761291504,5.4950952529907235
1746623615.722403,-2.01365065574646,-11.365443229675291,8.101183891296388
1746623615.7932835,-2.939035415649414,-11.158238410949705,9.1989221572876
1746623615.8895414,-1.2394846677780151,-10.44778823852539,5.233837604522706
1746623615.9851904,-1.6845924854278564,-9.218029975891112,7.4198975563049325
1746623616.0810616,-0.31419631838798523,-10.12148666381836,4.424636840820313
1746623616.1998916,-2.038207769393921,-10.215144157409666,8.194470405578615
1746623616.2732074,-0.3848412334918976,-8.061670303344727,6.746338844299317
1746623616.3692343,-1.1481891870498657,-6.852490901947021,6.066415309906007
1746623616.4651139,-0.86505126953125,-5.800123214721679,4.463408946990968
1746623616.5610323,0.4011036455631256,-3.41192364692688,1.5179989337921147
1746623616.690238,-1.3614193201065063,-7.0491929054260245,5.722424030303956
1746623616.7756073,-1.3017263412475586,-9.693003654479979,7.946508407592774
1746623616.8491123,0.2052963823080063,-6.346908092498778,5.140264511108399
1746623616.9452438,0.053187817335128784,-7.673944473266601,4.012475490570069
1746623617.0429995,-1.0081075429916382,-6.172919273376464,4.574176788330079
1746623617.1598675,-0.4410248398780823,-7.015587329864501,5.668490409851075
1746623617.2332191,-1.177481770515442,-10.137745857238768,9.264986991882326
1746623617.3292053,-1.3962080478668213,-15.93106937408447,15.816043853759767
1746623617.4251723,-2.1286182403564453,-13.436110496520994,13.45751190185547
1746623617.5210545,-2.081200361251831,-14.017751693725584,10.169736862182619
1746623617.6453242,-1.0118792057037354,-12.686478614807127,8.511014938354494
1746623617.71327,-1.5446810722351074,-10.157505035400389,10.610610008239748
1746623617.809063,-2.134654998779297,-6.543704032897948,7.226384639739991
1746623617.9054446,-0.11835223436355591,-3.4591500759124747,7.223238945007324
1746623618.001265,-0.2061809003353119,-5.899913311004638,3.835296869277955
1746623618.119619,-0.17077192664146423,-6.322242259979247,9.088611602783203
1746623618.1929874,0.19898204505443573,-8.085164070129393,7.349646568298341
1746623618.2889698,-0.5134686231613159,-10.531360626220701,8.57761859893799
1746623618.3851159,-0.20801910758018494,-10.12490463256836,5.09784746170044
1746623618.4810681,0.018846899271011353,-9.973987579345703,5.839282989501954
1746623618.6053963,-1.2402279376983643,-10.67881393432617,9.245138168334963
1746623618.6731148,-1.67642080783844,-11.347119331359862,10.11548709869385
1746623618.7695725,-1.0940117835998535,-13.132385253906248,10.963141441345217
1746623618.8651595,-1.183080792427063,-13.744899749755858,9.020763397216799
1746623618.960965,-1.039394497871399,-12.33501625061035,8.74039936065674
1746623619.0846076,-1.5323225259780884,-10.30067443847656,10.108846664428713
1746623619.1562457,-1.4961023330688477,-13.466486930847166,11.73398017883301
1746623619.2521021,-1.478289246559143,-11.280322074890135,11.783193588256838
1746623619.3482852,-0.980971097946167,-8.546872138977049,9.98349952697754
1746623619.4413142,-0.871692419052124,-10.139067649841307,8.252554893493654
1746623619.5685394,-0.5874316692352295,-10.81472873687744,8.917016983032228
1746623619.6360576,0.07676899433135986,-6.712331295013427,5.7605619430542
1746623619.7321289,0.23803922533988953,-6.652799606323242,3.5620641708374032
1746623619.82814,0.12826283276081085,-7.81197166442871,4.1786537170410165
1746623619.9241414,0.17934587597846985,-8.512581825256346,8.553975105285646
1746623620.0585945,-0.6009584665298462,-12.631753921508787,9.014895439147951
1746623620.1162157,-0.9306197166442871,-11.511738777160643,10.809664726257326
1746623620.2139637,-1.0289456844329834,-11.61241054534912,10.606330871582033
1746623620.3122427,-0.5944497585296631,-5.741152763366698,8.507182121276855
1746623620.4043403,-0.41030949354171753,-8.778969764709473,4.048143863677979
1746623620.5283425,-0.38663339614868164,-8.867137908935545,8.545861244201662
1746623620.5959313,0.6979323625564575,-9.460152626037598,6.860985279083253
1746623620.692091,-0.055723607540130615,-13.169602394104002,8.863750457763674
1746623620.7880003,0.2132778912782669,-8.093212127685547,6.0007972717285165
1746623620.8841171,0.06624355912208557,-8.601346015930174,7.626486778259278
1746623621.0027719,0.7940933704376221,-4.668725967407226,5.317439556121827
1746623621.0760338,0.00535893440246582,-5.821716308593749,5.687249183654786
1746623621.1722517,-0.628298282623291,-5.891616821289062,7.486814498901368
1746623621.2683635,0.15769065916538239,-8.63453674316406,8.042134284973146
1746623621.3641703,0.32529357075691223,-9.590444564819334,9.687734603881838
1746623621.4883492,1.2416505813598633,-9.452781677246092,8.026018142700197
1746623621.5562778,-0.30739182233810425,-8.912050247192381,11.090526580810549
1746623621.652139,0.4952700734138489,-6.605250358581542,6.087396144866944
1746623621.7480392,-0.8417946100234985,-7.457491397857665,7.341955184936524
1746623621.8440292,-0.13715627789497375,-8.166277885437012,5.6513662338256845
1746623621.9623861,-0.7062360048294067,-8.328229904174805,7.02884864807129
1746623622.0359135,-0.19387683272361755,-11.370160102844237,7.769871234893801
1746623622.132584,-0.9081132411956787,-13.00545024871826,10.800518035888674
1746623622.2299597,-1.0831735134124756,-10.906677246093748,9.61709499359131
1746623622.3238938,-0.45007726550102234,-10.02958011627197,9.357256889343263
1746623622.4541097,-1.240480899810791,-8.990501403808592,10.15884590148926
1746623622.5192273,1.09182608127594,-5.73646068572998,4.22286081314087
1746623622.614881,-1.0987879037857056,-13.44399833679199,11.22276306152344
1746623622.7136712,-1.34232759475708,-12.758872032165526,15.08145332336426
1746623622.8075864,-1.2898709774017334,-13.0121374130249,12.30250644683838
1746623622.922999,-1.1107884645462036,-11.720876693725586,7.1151351928710955
1746623622.9989712,-0.357439786195755,-10.38664722442627,7.140514373779298
1746623623.097495,-2.2474453449249268,-11.935085296630858,9.470840454101564
1746623623.1912096,-1.0447583198547363,-7.636742115020751,6.4134182929992685
1746623623.2867117,-2.4288787841796875,-12.2247257232666,11.52224636077881
1746623623.4109883,-2.2464425563812256,-17.938013076782223,16.4784049987793
1746623623.4788249,-1.4737777709960938,-13.66953659057617,8.42293453216553
1746623623.5747867,-2.3380370140075684,-10.74356174468994,10.36238479614258
1746623623.671522,-0.8201711177825928,-14.522961616516112,8.940686225891115
1746623623.7672591,-1.4490697383880615,-15.230775833129881,12.623738288879396
1746623623.885345,-2.2602226734161377,-9.835537910461424,11.017975807189943
1746623623.9593537,-1.1789792776107788,-13.850294113159178,8.786927223205568
1746623624.054684,-0.8735368251800537,-8.839519500732422,5.60082244873047
1746623624.151318,-0.5593886375427246,-8.525428771972656,7.139147758483888
1746623624.2468555,-0.3287648856639862,-8.960478782653809,4.311054229736329
1746623624.3701687,-0.6435707807540894,-4.836228847503661,4.036173820495606
1746623624.4378924,0.4709491431713104,-2.6746523380279537,3.4611179828643803
1746623624.5337286,0.9939817190170288,-3.0707478523254395,1.6476238965988164
1746623624.6325662,0.30886897444725037,-2.159042119979858,5.132468223571777
1746623624.728987,-0.151729017496109,-5.705736160278319,4.451665878295899
1746623624.8504364,1.295224666595459,-4.821452140808105,5.179962158203126
1746623624.918882,0.30341222882270813,-5.1236557960510245,5.502902507781983
1746623625.0147343,0.8147504329681396,-7.343753814697266,2.8694751262664804
1746623625.1133664,0.5131386518478394,-5.319347381591796,4.772130012512208
1746623625.2069707,1.6120527982711792,-9.162110328674316,6.764628887176515
1746623625.3326683,0.9987062215805054,-10.722365379333494,8.251341819763185
1746623625.3990197,0.28915920853614807,-11.70962333679199,8.21638870239258
1746623625.494662,0.44356149435043335,-5.897552013397216,6.354875564575196
1746623625.5907857,0.4867977201938629,-5.295197010040282,6.956116676330567
1746623625.689331,0.21243959665298462,-7.818278789520263,5.446756839752198
1746623625.8114948,0.3711223900318146,-10.67287254333496,8.985798835754396
1746623625.8787663,-0.16933655738830566,-9.142916679382322,8.60304927825928
1746623625.9779298,0.15419742465019226,-11.141223907470701,9.04399108886719
1746623626.0738363,-0.4854002594947815,-8.312245368957518,10.628066062927248
1746623626.1698105,0.34519875049591064,-7.810645580291747,6.445900440216065
1746623626.2941966,0.09271925687789917,-8.103885650634766,6.835719108581544
1746623626.3738105,0.031064718961715698,-7.064342498779296,7.409264087677003
1746623626.45792,-0.13056430220603943,-9.6312894821167,6.732614517211915
1746623626.553754,-0.8863903284072876,-8.458103179931639,9.31088161468506
1746623626.649909,-0.7608660459518433,-9.3741397857666,10.95110321044922
1746623626.7688692,-1.244154930114746,-8.649154663085936,10.51822090148926
1746623626.8416548,-1.3756372928619385,-11.519929885864256,11.875699996948244
1746623626.93799,-1.782681941986084,-11.660454750061033,12.48490619659424
1746623627.0338,-1.9077842235565186,-13.51320457458496,11.8100643157959
1746623627.1300094,-1.311340570449829,-16.877586364746094,11.164143562316896
1746623627.2588482,-1.7732837200164795,-15.24573230743408,9.113329887390138
1746623627.321658,-1.0498390197753906,-13.728512763977049,8.079305648803713
1746623627.4181614,-1.5520418882369995,-14.756526947021483,10.902415275573732
1746623627.5172358,-1.4683315753936768,-13.770137786865233,9.986253738403322
1746623627.609645,-1.6991872787475586,-14.172563552856444,12.10148334503174
1746623627.7285087,-1.5745034217834473,-11.130906105041502,10.472114562988283
1746623627.8018415,-2.1199872493743896,-11.997387886047362,11.564742088317873
1746623627.8978772,-1.7351963520050049,-12.625521659851072,11.909616470336916
1746623627.9937377,-1.8812072277069092,-11.717797279357908,10.393094062805178
1746623628.089623,-1.7912683486938477,-8.989562988281248,8.127151489257814
1746623628.2140415,-2.8165087699890137,-14.193267822265623,12.688969612121584
1746623628.281669,-2.292262077331543,-10.637666702270506,9.394688606262209
1746623628.3777025,-2.243720293045044,-9.49171733856201,8.468954086303713
1746623628.4736369,-2.3156228065490723,-9.030492782592772,8.965824127197267
1746623628.570378,-2.116602897644043,-9.373409271240233,9.632628440856935
1746623628.6883051,-4.021197319030762,-8.099153518676756,9.625590324401857
1746623628.7619896,-1.8787823915481567,-3.9055280685424796,6.208002567291261
1746623628.8576782,-3.0560243129730225,-9.355255126953123,8.506627082824709
1746623628.9537275,-5.408553600311279,-12.081108093261717,13.238819122314455
1746623629.049674,-4.218368053436279,-8.064544677734373,7.710437774658204
1746623629.1739464,-3.5296823978424072,-9.085844993591309,5.8461856842041025
1746623629.241601,-3.1976318359375,-9.338234901428223,6.8151822090148935
1746623629.340629,-3.8542850017547607,-3.4950053691864005,6.807887554168701
1746623629.4339736,-5.201870918273926,-8.627290725708006,9.87618160247803
1746623629.5326765,-2.41351318359375,-5.603403091430663,3.9418249130249032
1746623629.6513593,-7.148524761199951,-12.448353767395018,11.973518371582033
1746623629.724841,-2.214939832687378,-5.2109289169311515,4.525835037231446
1746623629.8206697,-3.935880422592163,-11.549831390380858,7.337931156158449
1746623629.9168859,-4.208775997161865,-7.46237564086914,5.898788928985597
1746623630.0158162,-1.526926040649414,-7.427143096923827,6.171179771423341
1746623630.136945,-2.7180190086364746,-7.199674129486083,4.932048797607423
1746623630.204889,-5.164925575256348,-7.934027194976806,6.768464088439942
1746623630.3007503,-4.057585716247559,-9.307077407836914,6.776198863983155
1746623630.3967087,-5.3821916580200195,-13.063747406005858,8.884876251220705
1746623630.4926493,-2.624495029449463,-6.030190944671631,2.068591833114625
1746623630.6110387,-5.60905647277832,-7.034256935119628,9.641655921936035
1746623630.6847506,-5.525589466094971,-9.736713409423826,8.433104515075685
1746623630.7805638,-3.4826879501342773,-6.647934436798095,6.634033679962159
1746623630.8767638,-3.9583933353424072,-11.516246795654297,5.026586055755617
1746623630.9727488,-5.893533706665039,-13.949936866760252,10.933488845825197
1746623631.0970213,-3.918889284133911,-9.576917648315428,7.482538700103761
1746623631.1647067,-3.4744551181793213,-9.817348480224608,11.489041328430178
1746623631.2605083,-3.471458673477173,-10.668797492980955,10.840319633483888
1746623631.356558,-4.628900051116943,-7.082115650177001,6.717768669128419
1746623631.4526477,-1.1461424827575684,-8.58421802520752,5.63649606704712
1746623631.571379,-5.5815324783325195,-13.301753044128416,9.175634384155275
1746623631.6446412,-1.2302958965301514,-2.419840335845947,4.045071601867676
1746623631.7405236,-1.578104019165039,-0.47302287817001304,3.281801223754883
1746623631.8367038,-1.833688735961914,-6.9307494163513175,7.842117309570313
1746623631.9326656,-1.9594171047210693,-5.6466684341430655,5.096850395202638
1746623632.0618129,-1.0661348104476929,-3.9258701801300044,4.083177566528321
1746623632.1246474,-2.405461072921753,-3.123689174652099,2.672322273254395
1746623632.2206588,-1.7431602478027344,-7.748621940612792,5.407259941101075
1746623632.3167667,-2.5215752124786377,-7.648781299591064,7.224255084991456
1746623632.4128377,-2.4375734329223633,-9.55894088745117,7.826733589172364
1746623632.5369852,1.8886897563934326,-8.624300956726074,3.1958584785461435
1746623632.6046133,-1.1099858283996582,-9.676631927490234,7.0313758850097665
1746623632.700766,-2.5474936962127686,-10.856641769409178,8.751650810241701
1746623632.7997077,1.043796181678772,-8.350666999816895,4.6186795234680185
1746623632.896758,-3.271223306655884,-5.0009117126464835,6.566230773925782
1746623633.016988,-1.1704270839691162,-7.21153163909912,6.7951064109802255
1746623633.0877774,-1.464868187904358,-8.875296592712402,5.406670570373536
1746623633.1836467,-0.5368996858596802,-8.889884948730467,7.296224594116212
1746623633.2774389,-4.489343166351318,-4.02967071533203,8.921111106872559
1746623633.3736014,-2.167510986328125,-7.827712059020995,6.367424964904786
1746623633.4920378,-1.655097484588623,-13.19680881500244,7.860340595245363
1746623633.5654247,-0.9790946841239929,-10.831997871398924,8.193939208984377
1746623633.6617606,-0.5367634892463684,-7.188827037811278,4.920688152313233
1746623633.7573774,-0.6755716800689697,-2.219990968704223,4.870940685272217
1746623633.8564553,-1.0107612609863281,-9.731961250305176,7.1094727516174325
1746623633.9777496,-0.8538565635681152,-7.3182897567749015,6.536666870117188
1746623634.0488193,-0.30850520730018616,-6.420701503753661,5.173878192901612
1746623634.1445663,-0.5159109830856323,-8.053482055664062,6.273313999176026
1746623634.2406876,-0.8110411167144775,-7.709343433380126,6.625209331512452
1746623634.3378274,-1.0129728317260742,-4.483717918395995,4.2171645164489755
1746623634.4568863,-0.9297358989715576,-5.2342891693115225,4.145976543426515
1746623634.5284328,2.4595773220062256,-2.6514589786529537,2.8845431804656987
1746623634.6247137,-4.434691429138184,-5.045116424560546,8.885344505310059
1746623634.7208083,-3.51035737991333,-7.889695644378661,7.692224025726319
1746623634.816534,-1.507312536239624,-4.71985626220703,3.685982465744019
1746623634.9468646,-1.3474500179290771,-9.142061233520508,3.9194080829620375
1746623635.0086713,-0.6713038086891174,-4.819838047027587,4.494155883789063
1746623635.1047542,-0.6214130520820618,-3.8050041198730464,4.343877792358399
1746623635.2009003,-3.7293365001678467,-4.450180530548095,7.554274559020997
1746623635.2966259,-1.10653555393219,-8.279175758361816,6.284532070159913
1746623635.4156659,-1.8427116870880127,-9.518990516662598,6.162409782409669
1746623635.4886913,0.0006177425384521484,-7.518132686614989,5.23396921157837
1746623635.58443,-2.0817604064941406,-8.08457088470459,6.39245367050171
1746623635.6806295,-2.5671346187591553,-9.567888259887694,7.587502002716065
1746623635.7795386,-1.8091802597045898,-9.406115531921387,7.188525199890138
1746623635.9008482,-1.0849871635437012,-8.63109016418457,3.778315782546998
1746623635.9774535,-1.4458733797073364,-9.39115238189697,7.310150623321534
1746623636.064384,-2.3863651752471924,-10.600597381591797,6.744425773620606
1746623636.1604335,-2.568265676498413,-10.04969024658203,7.680011749267579
1746623636.2564676,-2.7956435680389404,-10.082676887512205,7.437158107757569
1746623636.376392,0.02927565574645996,-11.098785400390625,6.089359283447267
1746623636.44864,-3.171201229095459,-8.46797180175781,8.230502128601076
1746623636.5444052,-4.068485736846924,-13.9191837310791,10.40290927886963
1746623636.6405232,-1.7015115022659302,-10.08860683441162,7.526475906372071
1746623636.736594,-0.5423343181610107,-9.532673835754395,6.456693172454835
1746623636.8653986,-2.631110191345215,-8.066909790039062,6.500451087951661
1746623636.9285204,-1.8597898483276367,-9.981098175048826,7.521202564239503
1746623637.024381,1.1430248022079468,-8.802214622497559,4.115293979644776
1746623637.1204176,-1.8299827575683594,-7.695162773132323,7.276674747467042
1746623637.2166471,-1.5968117713928223,-7.396399021148681,5.766538619995118
1746623637.345609,-2.01046085357666,-8.37363338470459,7.0230960845947275
1746623637.4137692,-2.2601265907287598,-9.45677852630615,7.472236633300782
1746623637.5101295,-3.4275717735290527,-10.352296829223631,10.5038537979126
1746623637.6035073,-1.6786338090896606,-8.699703216552734,6.166691303253175
1746623637.6997738,-2.1404683589935303,-12.647681236267088,8.132355690002443
1746623637.8273141,-2.244320869445801,-11.060754776000975,8.704142570495607
1746623637.8916576,-3.295393705368042,-10.839984893798826,10.967638969421388
1746623637.987603,-1.1672334671020508,-6.907816886901855,4.832996368408204
1746623638.0835776,-0.611026406288147,-9.557936668395996,7.17740297317505
1746623638.1795106,-0.38476285338401794,-6.28081750869751,0.7755874991416939
1746623638.2986135,0.8678159713745117,-4.25063419342041,3.360261201858521
1746623638.3714106,3.1657960414886475,-4.539257049560547,2.9997260570526127
1746623638.468537,-1.5829365253448486,-8.167875289916992,5.854265689849854
1746623638.564346,-3.0460586547851562,-6.958479404449462,7.786348342895509
1746623638.6604033,-1.226285696029663,-9.78363800048828,8.75028991699219
1746623638.781926,-1.1298303604125977,-11.917778015136717,8.802370071411135
1746623638.850221,-1.2179992198944092,-7.913105964660644,7.427355766296388
1746623638.9463372,-1.0516347885131836,-7.903279304504394,6.612800598144532
1746623639.0421834,1.496291995048523,-5.578308582305907,5.205852985382081
1746623639.1383014,-1.459318995475769,-5.398822784423827,8.874004364013672
1746623639.2588568,-0.9428207874298096,-4.6852068901062,5.537082195281983
1746623639.3301842,-0.0010942518711090088,-6.8975191116333,6.266890525817872
1746623639.4263906,-0.3629084825515747,-8.713491439819334,7.307236671447755
1746623639.522277,-0.6305058598518372,-8.169628143310545,7.546984672546388
1746623639.6185448,-0.708739161491394,-6.63310956954956,6.514124393463136
1746623639.7520773,-0.5413494110107422,-6.179305553436278,6.18547010421753
1746623639.8152995,-0.9898368120193481,-8.599750518798828,6.807471275329591
1746623639.912159,-1.367983102798462,-14.321754455566404,9.443536758422853
1746623640.005662,-0.6498899459838867,-11.56816005706787,9.074160575866701
1746623640.101638,-0.4743320047855377,-8.226396560668945,6.444941520690919
1746623640.217438,-0.5636991262435913,-7.38744831085205,5.857060432434083
1746623640.2932723,-0.47752705216407776,-5.3373446464538565,4.829162120819093
1746623640.3893173,-1.0410349369049072,-6.636701583862304,9.587577819824219
1746623640.4855247,-1.7137378454208374,-8.507984161376951,7.64546298980713
1746623640.5812743,-2.121224880218506,-10.480978965759276,9.26810646057129
1746623640.7054923,-0.6723633408546448,-10.65892505645752,7.226710319519044
1746623640.781559,-2.059324264526367,-8.065308570861815,7.459024906158448
1746623640.8693693,-1.572002649307251,-3.271850109100341,7.4530487060546875
1746623640.9656427,-1.8543410301208496,-8.217785835266113,6.522608280181886
1746623641.061255,-2.2406044006347656,-12.968339920043944,9.58546829223633
1746623641.179826,-0.9172277450561523,-9.901529312133787,7.284663200378419
1746623641.2532516,-4.31658411026001,-2.0803999900817858,9.786946296691895
1746623641.3491812,-1.4993743896484375,-6.84851837158203,5.470184326171876
1746623641.4454174,0.10983309149742126,-4.5267157554626465,2.713537693023682
1746623641.5411222,-3.102665901184082,-15.320075035095213,10.119389533996584
1746623641.6715283,-1.8247369527816772,-18.49725914001465,12.18670177459717
1746623641.7331479,0.6624059677124023,-8.547462463378906,7.224327087402345
1746623641.8292837,-2.480067491531372,-7.584990978240966,5.351530075073243
1746623641.925387,-1.4506319761276245,-7.039034843444824,3.6120173931121835
1746623642.021197,-3.6555323600769043,-10.274032592773436,9.725160598754885
1746623642.145444,-1.7602756023406982,-11.555087089538574,5.307745933532717
1746623642.2152793,-5.905201435089111,-8.097330093383787,10.342321395874025
1746623642.3118594,-1.8344144821166992,-7.567357540130614,6.714509963989259
1746623642.405566,-2.1098082065582275,-7.350260257720946,5.349085807800294
1746623642.5027227,-5.295159816741943,-10.365552902221678,7.3893775939941415
1746623642.6253924,1.0272294282913208,-4.9426140785217285,1.7571966648101813
1746623642.693334,-2.1389453411102295,-7.705697059631347,6.17249345779419
1746623642.7891922,-1.3446954488754272,-5.375040054321288,5.12788486480713
1746623642.885928,-2.6315724849700928,-10.001236915588377,7.676945686340333
1746623642.9821687,-0.976737380027771,-7.4464354515075675,4.811467170715333
1746623643.100855,-2.4454479217529297,-10.71437072753906,8.137500762939455
1746623643.1741495,-1.9308499097824097,-9.73912715911865,8.410991668701174
1746623643.270144,-0.3574262857437134,-4.201143264770507,5.364041805267335
1746623643.3661468,-3.1287288665771484,-11.34874629974365,9.009953498840334
1746623643.4622087,-2.5708889961242676,-8.64041996002197,8.240929603576662
1746623643.586551,-2.6655709743499756,-9.707689285278319,7.967316150665284
1746623643.6540911,-0.546893835067749,-10.499829292297363,5.185427188873292
1746623643.750051,-3.7739744186401367,-3.971390962600707,7.928017139434815
1746623643.8462563,-1.2875564098358154,-7.302656173706054,5.827444553375245
1746623643.9421332,-2.3737411499023438,-11.82190418243408,8.606813430786135
1746623644.061307,-1.7994166612625122,-7.413856983184814,5.592076778411866
1746623644.1340733,-1.0180295705795288,-7.63974380493164,5.306410789489747
1746623644.233798,-3.730085849761963,-4.959411621093749,8.929713249206543
1746623644.3291988,-1.8066601753234863,-8.473820686340332,6.2820825576782235
1746623644.4252493,0.5985174775123596,-9.458613395690918,6.847525119781495
1746623644.5558412,-2.5851714611053467,-8.225809097290037,8.147982597351076
1746623644.6172566,-1.5239193439483643,-7.637216567993163,7.08027219772339
1746623644.7150407,-1.1200482845306396,-6.287651538848876,5.609480857849122
1746623644.8158846,-0.3215346336364746,-8.98896789550781,7.255681037902833
1746623644.9056141,-3.114945411682129,-4.468455791473388,7.072248935699464
1746623645.0240316,-0.4916262626647949,-5.323740005493163,5.532468795776368
1746623645.097046,-0.6352589130401611,-8.397323608398438,6.2120938301086435
1746623645.1932716,-0.13989758491516113,-6.728113174438476,4.528388977050782
1746623645.2893336,-0.5131800770759583,-5.531842231750487,5.635635852813722
1746623645.3853014,-1.0738261938095093,-3.407529592514037,5.870506763458252
1746623645.5094578,-0.20338737964630127,-5.456054687499999,4.634171962738038
1746623645.5869849,1.3803566694259644,-1.340263724327087,4.311155796051025
1746623645.6732154,1.094150424003601,-1.7867429256439205,4.439233779907227
1746623645.7696211,0.11486148834228516,-6.175802707672118,4.73172426223755
1746623645.8651936,0.5852338075637817,-6.730980396270751,5.507028102874757
1746623645.9837294,0.6172162294387817,-5.767216205596923,5.529876708984376
1746623646.0571032,-0.11761775612831116,-7.463875770568847,5.386555671691895
1746623646.154148,0.6215423345565796,-7.844349861145019,5.01802158355713
1746623646.2506704,0.7925123572349548,-7.253239631652831,4.456085205078126
1746623646.3459966,-0.624773383140564,-7.554348945617675,5.678582668304444
1746623646.47027,-0.1639707386493683,-7.319646358489989,5.771744251251222
1746623646.537946,-0.3911716938018799,-7.570763587951659,6.020703792572022
1746623646.6342826,-0.5293615460395813,-7.187932014465331,6.160818576812745
1746623646.730301,-2.3175697326660156,-9.05315589904785,7.415913105010987
1746623646.8259737,-0.2793750762939453,-9.086298942565918,6.014474391937257
1746623646.950045,-0.7206319570541382,-7.960558414459228,7.186431884765626
1746623647.0180135,-0.4429454207420349,-8.807898521423338,7.580744266510011
1746623647.1162763,0.4031115174293518,-9.13271141052246,9.638699531555178
1746623647.2129958,-2.0561575889587402,-11.483667373657225,9.515323638916017
1746623647.3061662,-1.527062177658081,-8.455810546875,7.057829380035401
1746623647.4316761,-2.1778173446655273,-13.281112670898436,9.279175758361818
1746623647.4980538,-0.6605725288391113,-9.973587989807129,7.091950416564942
1746623647.5941188,-0.3626144826412201,-8.650220870971678,8.159285545349123
1746623647.6901653,-1.8318250179290771,-5.333575725555419,8.748043060302734
1746623647.7859988,-1.0495948791503906,-4.59510326385498,5.915443897247315
1746623647.9048157,-2.090118169784546,-4.781678676605224,4.121809005737306
1746623647.9785516,-0.6403364539146423,-4.479934215545653,4.169996738433839
1746623648.0739741,-0.47715169191360474,-7.704993724822997,5.4481825828552255
1746623648.1702104,-0.2554072439670563,-5.555560111999511,5.4450135231018075
1746623648.265956,-1.788450002670288,-3.858322620391845,7.794368267059327
1746623648.3901176,-1.5057787895202637,-4.854376316070556,4.7909255027771005
1746623648.4581716,-1.6168664693832397,-8.560123443603514,7.979307174682618
1746623648.5539248,0.9716553688049316,-10.261548042297363,4.416298389434815
1746623648.6500392,-2.201268196105957,-7.085300445556639,10.930034637451172
1746623648.7461743,-1.5555967092514038,-10.482540130615233,9.259661674499513
1746623648.8645372,-0.10529977083206177,-12.190143585205078,5.525691986083986
1746623648.941143,-2.1744251251220703,-3.9525172710418692,7.7666101455688485
1746623649.0370228,-2.2503433227539062,-11.26114749908447,8.528609275817873
1746623649.1330822,-1.2392991781234741,-9.852558135986328,6.253901481628419
1746623649.2288616,-3.045499563217163,-12.004495620727537,9.596321105957033
1746623649.3580637,-3.8702900409698486,-15.17227268218994,10.500864982604982
1746623649.421383,-0.9035569429397583,-9.304950714111328,5.158257007598878
1746623649.5168788,-3.127061367034912,-11.552112579345701,9.63728713989258
1746623649.6112375,-1.705228567123413,-9.015442848205566,6.503564357757569
1746623649.7071564,1.6772665977478027,-8.517332077026367,4.546268939971925
1746623649.8256176,-4.901097774505615,-0.8441214561462395,6.055908203125
1746623649.8995814,-1.2098712921142578,-9.247306823730467,7.567193508148194
1746623649.998119,-1.4157495498657227,-5.532295703887939,5.3438382148742685
1746623650.0940647,0.7910988926887512,-4.232658386230469,2.321813583374024
1746623650.1901326,-1.175501823425293,-4.625121593475341,4.680628299713136
1746623650.314273,-0.3498840928077698,-4.713442802429198,4.511389732360841
1746623650.3813174,-0.6481165289878845,-6.36005687713623,4.685317516326905
1746623650.4760103,0.3246706426143646,-6.36390209197998,4.619592189788819
1746623650.571925,0.3172922730445862,-6.09066915512085,1.9347064495086677
1746623650.6680446,-0.4009031355381012,-5.206840991973876,4.63930892944336
1746623650.7871094,-0.000985264778137207,-7.354148387908935,5.856760978698731
1746623650.860175,-0.5531103610992432,-6.970074653625487,5.22343397140503
1746623650.9559574,-0.4409678280353546,-7.96856927871704,7.474198818206788
1746623651.0528681,-1.6488721370697021,-8.57893180847168,6.552638053894044
1746623651.1489851,-3.152601957321167,-9.583629608154295,8.575035095214846
1746623651.2733545,-1.4284062385559082,-9.203655242919922,7.028010845184327
1746623651.3410091,-0.9111676812171936,-7.732770919799804,5.9519715309143075
1746623651.4368036,1.1768581867218018,-8.98483943939209,3.098109722137452
1746623651.532937,2.045602798461914,-5.893189430236816,1.2780684232711799
1746623651.6290407,-0.25115153193473816,-3.6130795478820796,3.136618614196778
1746623651.752557,-0.6131750345230103,-5.60119342803955,4.646451473236085
1746623651.8209376,-3.43464994430542,-5.473754405975341,6.847857952117921
1746623651.917144,-0.9096317291259766,-7.5029354095458975,4.964948654174806
1746623652.014696,-2.2998428344726562,-11.188455581665037,8.690776824951174
1746623652.1118996,-1.5355092287063599,-12.260512351989746,7.125110149383547
1746623652.233335,-1.1904398202896118,-7.36288833618164,6.299596309661866
1746623652.3042943,-2.4886581897735596,-6.177891254425048,6.67054033279419
1746623652.4001698,-2.3799540996551514,-11.805306434631346,9.346824645996096
1746623652.4959707,-2.0214099884033203,-10.060552597045898,5.870038032531739
1746623652.5919654,-1.1140830516815186,-9.804203033447264,7.854146957397462
1746623652.7105644,-4.830161094665527,-9.814863204956053,9.326526641845705
1746623652.783827,-0.5802946090698242,-11.494409561157227,4.687495708465578
1746623652.8801515,-2.302743911743164,-7.792674541473388,5.9675869941711435
1746623652.9759314,-2.2393345832824707,-9.23019027709961,7.12698793411255
1746623653.0719314,0.8825095891952515,-9.642765045166016,3.7105360031127943
1746623653.1962984,-2.6002848148345947,-11.15087032318115,9.018940925598146
1746623653.2617595,-2.321409225463867,-8.63908863067627,7.109088420867921
1746623653.3581717,-2.261193037033081,-8.497051239013672,6.193881034851075
1746623653.4570022,-0.9009401202201843,-9.972078323364258,4.31138038635254
1746623653.5507238,-3.4267966747283936,-8.53679847717285,7.331296920776368
1746623653.671358,-1.3535399436950684,-8.322845458984375,6.531646728515626
1746623653.7439022,-1.284304141998291,-9.091577529907227,6.247361660003663
1746623653.8399775,-4.886760234832764,-12.67541980743408,11.194177627563478
1746623653.9359527,-2.850630283355713,-4.753493785858153,5.612154960632325
1746623654.0318756,-1.4456779956817627,-8.802824974060059,5.863864421844483
1746623654.1608932,-2.326305627822876,-8.587668418884277,6.763704776763917
1746623654.2239401,-0.8228247165679932,-3.1319272518157955,3.74437427520752
1746623654.3199801,-0.9101475477218628,-8.610010147094727,5.778903007507325
1746623654.4158058,-1.0048456192016602,-1.5343396663665765,4.999820709228516
1746623654.5118945,-0.7989702820777893,-7.341136455535888,6.321317672729493
1746623654.6305697,-2.34511661529541,-2.957261562347411,5.817728042602539
1746623654.7040231,-0.3429557681083679,-9.714760780334473,4.76941728591919
1746623654.8009374,-4.051065444946289,-4.6101036071777335,8.342986106872559
1746623654.896868,-1.5699758529663086,-10.747078895568846,7.462228775024415
1746623654.9937875,-2.9380438327789307,-10.789898872375487,8.746503829956056
1746623655.1181722,-1.4427759647369385,-8.836289405822752,7.50230360031128
1746623655.1948757,-0.783931314945221,-6.5145845413208,4.334383964538575
1746623655.2797902,-5.0694098472595215,-8.620419502258299,10.79730796813965
1746623655.376036,2.566021203994751,-3.6519157886505123,2.7196350097656254
1746623655.4717257,-2.956275701522827,-7.44126272201538,5.608808040618897
1746623655.5901976,-2.9820189476013184,-6.281414031982421,6.9803762435913095
1746623655.6665862,1.6425844430923462,-6.207213401794434,1.2107141017913825
1746623655.759959,-2.4388160705566406,-9.108700752258299,7.7911367416381845
1746623655.8562222,-1.911975622177124,-6.768026828765868,7.315166473388673
1746623655.954756,-0.5406782627105713,-6.305819511413574,2.5377471446990976
1746623656.0788805,-2.9003493785858154,-7.080725193023681,4.501269340515138
1746623656.1466165,-3.57019305229187,-3.0898907184600826,5.024445056915283
1746623656.2426367,-1.3674968481063843,-5.651728153228759,3.7487201690673837
1746623656.338957,-5.159721374511719,-9.004685401916502,8.218337059020998
1746623656.4345875,-0.6004068851470947,-4.023643970489502,2.270764827728272
1746623656.5581274,-2.626847267150879,-6.12442398071289,7.691619396209718
1746623656.6266341,-0.362120121717453,-10.70697021484375,5.929335117340089
1746623656.720801,-1.7693849802017212,-5.968981742858886,5.977580070495606
