timestamp,ax,ay,az
1746610250.4786444,-1.630366325378418,-5.005964279174804,8.194854736328125
1746610250.7482183,-1.6937460899353027,-5.093891143798827,8.25051212310791
1746610250.9994617,-1.6732137203216553,-5.011332035064696,8.2421236038208
1746610251.3016813,-1.6635017395019531,-5.070817470550536,8.245355606079102
1746610251.57138,-1.6651264429092407,-5.041603565216064,8.244206428527832
1746610251.8417134,-1.6651264429092407,-5.041603565216064,8.244206428527832
1746610252.4403336,-1.606798768043518,-5.032602310180663,8.2110595703125
1746610252.723711,-1.606798768043518,-5.032602310180663,8.2110595703125
1746610253.0731225,-1.606798768043518,-5.032602310180663,8.2110595703125
1746610253.3881962,-1.606798768043518,-5.032602310180663,8.2110595703125
1746610253.778461,-1.606798768043518,-5.032602310180663,8.2110595703125
1746610254.10276,-1.606798768043518,-5.032602310180663,8.2110595703125
1746610254.8170848,-1.6708520650863647,-5.037640094757079,8.217329025268555
1746610255.1417654,-1.6690723896026611,-5.044476509094237,8.232702255249023
1746610255.539637,-1.6690723896026611,-5.044476509094237,8.232702255249023
1746610256.2480228,-1.6844652891159058,-5.060579299926757,8.244943618774414
1746610256.692695,-1.6844652891159058,-5.060579299926757,8.244943618774414
1746610257.0404212,-1.6844652891159058,-5.060579299926757,8.244943618774414
1746610257.4642875,-1.66379714012146,-5.096045494079589,8.228470802307129
1746610257.8813362,-1.66379714012146,-5.096045494079589,8.228470802307129
1746610258.6885715,-1.6391726732254028,-5.0413851737976065,8.21618366241455
1746610259.0573325,-1.6895581483840942,-5.092111587524413,8.251279830932617
1746610259.5939195,-1.7614308595657349,-5.0627074241638175,8.280683517456055
1746610259.93052,-1.7614308595657349,-5.0627074241638175,8.280683517456055
1746610260.7485292,-1.6541340351104736,-5.0289855003356925,8.205873489379883
1746610262.1032374,-1.6423563957214355,-5.083219528198241,8.220322608947754
1746610262.5459528,-1.626124620437622,-5.049084186553954,8.221277236938477
1746610262.9917958,-1.626124620437622,-5.049084186553954,8.221277236938477
1746610263.4109716,-1.626124620437622,-5.049084186553954,8.221277236938477
1746610263.8884625,-1.6730347871780396,-5.059027671813964,8.251587867736816
1746610263.9449978,-1.8020039796829224,-5.174823284149169,8.282565116882324
1746610263.9850965,-1.6048945188522339,-5.082707881927489,8.196983337402344
1746610264.2298663,-1.669373869895935,-5.055071353912353,8.226896286010742
1746610264.285605,-1.6640175580978394,-5.047506809234618,8.24478816986084
1746610264.3355203,-1.6667670011520386,-5.057632446289062,8.232722282409668
1746610264.4007277,-1.6496235132217407,-5.029399871826171,8.244847297668457
1746610264.475221,-1.65060555934906,-5.0740036964416495,8.235483169555664
1746610264.5198972,-1.673211693763733,-5.071094036102294,8.209783554077148
1746610264.56986,-1.663112998008728,-5.102714538574218,8.219989776611328
1746610264.6323135,-1.6219943761825562,-5.038635730743407,8.22500991821289
1746610264.6871717,-1.6453369855880737,-5.0398240089416495,8.248315811157227
1746610264.7294617,-1.654118299484253,-5.056817054748534,8.248961448669434
1746610264.7717428,-1.6570935249328613,-5.021458625793456,8.235808372497559
1746610264.8082824,-1.645938754081726,-5.009264469146728,8.215788841247559
1746610264.8396668,-1.592014193534851,-5.122931003570556,8.236506462097168
1746610264.8799698,-1.6171026229858398,-5.032754898071288,8.189799308776855
1746610264.9181726,-1.7067557573318481,-5.164865970611571,8.270890235900879
1746610264.960654,-1.6680786609649658,-4.846969127655028,8.230079650878906
1746610264.9970875,-1.6248009204864502,-5.15708303451538,8.259417533874512
1746610265.0332954,-1.6540641784667969,-5.066655635833739,8.221914291381836
1746610265.0699332,-1.6527891159057617,-5.052671432495116,8.204984664916992
1746610265.1036854,-1.6411373615264893,-5.098517894744872,8.205008506774902
1746610265.1401093,-1.6700875759124756,-5.075912952423095,8.236105918884277
1746610265.1674945,-1.652320146560669,-4.9651780128478995,8.295614242553711
1746610265.1904037,-1.6441608667373657,-4.939217090606689,8.285304069519043
1746610265.2089064,-1.6319994926452637,-5.1163926124572745,8.216703414916992
1746610265.2804532,-1.5651094913482666,-5.055147171020507,8.22134017944336
1746610265.3728523,-1.6954748630523682,-5.045447349548339,8.227027893066406
1746610265.4694166,-1.6519449949264526,-5.098145961761474,8.211455345153809
1746610265.565325,-1.6770445108413696,-5.072813034057616,8.228116035461426
1746610265.6616201,-1.7573542594909668,-5.256103992462157,8.369359970092773
1746610265.7606502,-1.6383646726608276,-4.812884330749511,8.17602825164795
1746610265.8533607,-1.679526448249817,-5.1767539978027335,8.218127250671387
1746610265.9490836,-1.6735987663269043,-5.00733470916748,8.229734420776367
1746610266.0454602,-1.6743420362472534,-5.089702129364013,8.253229141235352
1746610266.1423752,-1.673095464706421,-5.095815181732177,8.234106063842773
1746610266.2415593,-1.666633129119873,-5.001062870025634,8.244959831237793
1746610266.3344555,-1.6820482015609741,-5.047614574432372,8.254809379577637
1746610266.4303052,-1.6394799947738647,-5.026895523071288,8.232904434204102
1746610266.5262468,-1.6560627222061157,-5.056316852569579,8.234565734863281
1746610266.622009,-1.6610065698623657,-5.0360445976257315,8.231528282165527
1746610266.7269936,-1.6519280672073364,-5.050877571105956,8.236845016479492
1746610266.8123329,-1.6558620929718018,-5.0548033714294425,8.237153053283691
1746610266.9113245,-1.6642755270004272,-5.053039550781249,8.240948677062988
1746610267.0071137,-1.6537245512008667,-5.02368402481079,8.245332717895508
1746610267.10404,-1.6524569988250732,-5.051489353179931,8.246918678283691
1746610267.2075272,-1.6658716201782227,-5.0361666679382315,8.2307710647583
1746610267.2958777,-1.6378730535507202,-5.0207433700561515,8.23202133178711
1746610267.4043827,-1.661433219909668,-5.086934566497802,8.234308242797852
1746610267.4851437,-1.6583422422409058,-5.037943840026855,8.254858016967773
1746610267.581222,-1.652425765991211,-5.027728080749511,8.252713203430176
1746610267.6808703,-1.6667860746383667,-5.071624755859374,8.240285873413086
1746610267.7732472,-1.6528767347335815,-5.060885429382323,8.238550186157227
1746610267.8698063,-1.6734594106674194,-5.045975685119628,8.227980613708496
1746610267.9647937,-1.6620687246322632,-5.072335720062255,8.220394134521484
1746610268.0621624,-1.6584832668304443,-5.066903114318847,8.225428581237793
1746610268.161584,-1.6557756662368774,-5.036957263946532,8.233529090881348
1746610268.2539678,-1.6867772340774536,-5.055646896362304,8.241621017456055
1746610268.3499086,-1.6549748182296753,-5.064351081848144,8.234721183776855
1746610268.4458582,-1.676565408706665,-5.068292617797851,8.248954772949219
1746610268.542049,-1.6705056428909302,-5.038756847381591,8.237469673156738
1746610268.641583,-1.669192910194397,-5.041817665100097,8.244802474975586
1746610268.7342265,-1.6662954092025757,-5.044278144836425,8.252747535705566
1746610268.8296685,-1.6604220867156982,-5.040133476257323,8.235541343688965
1746610268.9272182,-1.6720247268676758,-5.050529956817626,8.239654541015625
1746610269.0219114,-1.653380036354065,-5.0412654876708975,8.23494815826416
1746610269.1213975,-1.6701445579528809,-5.092570781707763,8.235024452209473
1746610269.2175472,-1.6510089635849,-5.043309688568114,8.220865249633789
1746610269.3136673,-1.6727759838104248,-5.074491024017333,8.226447105407715
1746610269.4094787,-1.670501947402954,-5.04626178741455,8.227751731872559
1746610269.503285,-1.6752824783325195,-5.0310959815978995,8.243934631347656
1746610269.6106362,-1.6810261011123657,-5.058539867401122,8.242634773254395
1746610269.6994784,-1.6695305109024048,-5.039668083190917,8.244656562805176
1746610269.7921352,-1.6620699167251587,-5.038501262664794,8.243410110473633
1746610269.8882563,-1.661669373512268,-5.073901653289794,8.232491493225098
1746610269.9840672,-1.6687932014465332,-5.036150932312011,8.25382137298584
1746610270.0832996,-1.6740719079971313,-5.044657230377196,8.247142791748047
1746610270.177569,-1.6693059206008911,-5.010207176208495,8.283184051513672
1746610270.2729478,-1.672453761100769,-4.988199234008788,8.20194149017334
1746610270.369125,-1.6603138446807861,-5.058983802795409,8.251456260681152
1746610270.465448,-1.669309377670288,-5.079420089721679,8.239011764526367
1746610270.5630608,-1.6637576818466187,-5.019167900085448,8.247217178344727
1746610270.6591163,-1.633414626121521,-5.0497088432312,8.227667808532715
1746610270.7545683,-1.6430580615997314,-5.0830659866333,8.221673011779785
1746610270.8499086,-1.6516990661621094,-5.028949737548827,8.25549030303955
1746610270.9491856,-1.6276860237121582,-5.03664207458496,8.227930068969727
1746610271.0468245,-1.7349168062210083,-5.035433769226073,8.267655372619629
1746610271.1382208,-1.6558822393417358,-5.082772731781005,8.212287902832031
1746610271.2344468,-1.7118340730667114,-5.147371292114257,8.25302505493164
1746610271.328194,-1.6825571060180664,-5.0291967391967765,8.259000778198242
1746610271.4248424,-1.6850759983062744,-5.019053936004638,8.24710750579834
1746610271.5249434,-1.6322791576385498,-5.069427013397216,8.23207950592041
1746610271.6171792,-1.662142276763916,-5.06093406677246,8.227437019348145
1746610271.712813,-1.6300299167633057,-5.029609203338622,8.228509902954102
1746610271.8151586,-1.657572865486145,-5.083192348480224,8.240960121154785
1746610271.9048035,-1.6472638845443726,-5.0385470390319815,8.233769416809082
1746610272.0229235,-1.6516153812408447,-5.029496192932128,8.233814239501953
1746610272.0977662,-1.6644951105117798,-5.055237293243407,8.25399398803711
1746610272.1941848,-1.6702821254730225,-5.054674148559569,8.24610424041748
1746610272.289964,-1.667847990989685,-5.049364089965819,8.241955757141113
1746610272.3864741,-1.6648858785629272,-5.041791439056396,8.239974975585938
1746610272.486042,-1.670034408569336,-5.046973705291747,8.241859436035156
1746610272.5802639,-1.6572195291519165,-5.045672416687011,8.238786697387695
1746610272.710732,-1.651700496673584,-5.045228958129882,8.231825828552246
1746610272.77136,-1.6608073711395264,-5.050753116607665,8.23132610321045
1746610272.8662665,-1.6578426361083984,-5.051820278167724,8.240862846374512
1746610272.96742,-1.65727698802948,-5.060673236846923,8.234621047973633
1746610273.0609763,-1.660552740097046,-5.049219608306884,8.244800567626953
1746610273.1569958,-1.6469464302062988,-5.03699493408203,8.224309921264648
1746610273.2531557,-1.6390331983566284,-5.068057060241698,8.229708671569824
1746610273.3494718,-1.7060514688491821,-5.109676837921142,8.228556632995605
1746610273.448045,-1.730945348739624,-5.065577507019042,8.378740310668945
1746610273.5411923,-1.6578558683395386,-5.049186706542968,8.233552932739258
1746610273.6395416,-1.683212161064148,-5.100461959838866,8.230789184570312
1746610273.7340934,-1.5702219009399414,-5.050951004028319,8.227677345275879
1746610273.8301547,-1.6399040222167969,-5.102272987365722,8.24985122680664
1746610273.9271812,-1.6177070140838623,-4.941235065460204,8.232176780700684
1746610274.0203857,-1.696476936340332,-5.078859329223632,8.265029907226562
1746610274.1203692,-1.6621321439743042,-5.077287673950194,8.234363555908203
1746610274.2152283,-1.690731406211853,-5.037280559539794,8.245628356933594
1746610274.3114462,-1.6606597900390625,-5.074593544006347,8.239947319030762
1746610274.4181874,-1.6488094329833984,-5.070415496826171,8.234965324401855
1746610274.5049605,-1.6736022233963013,-5.025769710540771,8.248442649841309
1746610274.597113,-1.653086543083191,-5.009811401367187,8.238021850585938
1746610274.6946418,-1.6742825508117676,-5.084030628204345,8.239121437072754
1746610274.7926435,-1.6583551168441772,-5.060265064239501,8.230236053466797
1746610274.8883743,-1.6603513956069946,-5.055554866790771,8.237192153930664
1746610274.986969,-1.6485530138015747,-5.0594725608825675,8.230164527893066
1746610275.10304,-1.7025448083877563,-5.059671878814696,8.273009300231934
1746610275.1761334,-1.6085178852081299,-5.017499923706054,8.197543144226074
1746610275.2707872,-1.7017704248428345,-5.029970169067382,8.301034927368164
1746610275.3694928,-1.666837453842163,-5.029674053192138,8.251644134521484
1746610275.4619875,-1.6768968105316162,-5.096444129943847,8.255910873413086
1746610275.559394,-1.688620686531067,-5.0273375511169425,8.283279418945312
1746610275.6558974,-1.656444787979126,-5.033101081848144,8.252116203308105
1746610275.7523217,-1.6531336307525635,-5.0951571464538565,8.234546661376953
1746610275.8516443,-1.6431491374969482,-5.042675018310546,8.224799156188965
1746610275.9446733,-1.6681019067764282,-5.037571907043456,8.236143112182617
1746610276.0413547,-1.62563157081604,-5.014110088348388,8.285802841186523
1746610276.13832,-1.6344860792160034,-4.980322360992431,8.230201721191406
1746610276.232516,-1.693171501159668,-5.045301914215087,8.199342727661133
1746610276.332585,-1.6282148361206055,-5.085042476654052,8.207579612731934
1746610276.4248781,-1.649379014968872,-5.068921566009521,8.270552635192871
1746610276.5226052,-1.66743004322052,-5.057987213134765,8.233477592468262
1746610276.61692,-1.6911449432373047,-5.05226707458496,8.246381759643555
1746610276.712768,-1.6319684982299805,-5.055372238159179,8.217175483703613
1746610276.8124259,-1.6921476125717163,-5.080395221710204,8.238958358764648
1746610276.907679,-1.648917317390442,-5.026897907257079,8.242109298706055
1746610277.0054302,-1.649898886680603,-5.068261146545409,8.227599143981934
1746610277.0982716,-1.6493563652038574,-5.073822021484374,8.146997451782227
1746610277.1931853,-1.6886885166168213,-5.02917718887329,8.246293067932129
1746610277.2940986,-1.7042441368103027,-5.085117816925048,8.27262020111084
1746610277.3850942,-1.7436896562576294,-5.079397201538085,8.263854026794434
1746610277.4846392,-1.662811040878296,-5.037604331970214,8.2752685546875
1746610277.5788462,-1.6341050863265991,-5.072704315185546,8.225452423095703
1746610277.6757138,-1.5504181385040283,-5.056863784790038,8.173321723937988
1746610277.7749362,-1.657751441001892,-5.049274921417235,8.240674018859863
1746610277.8689442,-1.5401736497879028,-5.12506341934204,8.277414321899414
1746610277.9637272,-1.58595609664917,-5.122095108032226,8.086994171142578
1746610278.0600715,-1.59488844871521,-5.0252928733825675,8.274819374084473
1746610278.153504,-1.3864518404006958,-5.106887340545653,8.1361722946167
1746610278.2579167,-1.7715439796447754,-5.141488075256347,8.22851276397705
1746610278.349252,-1.676322340965271,-4.849595546722411,8.26187801361084
1746610278.4452739,-1.69297456741333,-5.216697692871093,8.235198974609375
1746610278.54108,-1.6644185781478882,-5.017055988311767,8.219610214233398
1746610278.6356533,-1.6760978698730469,-5.060699939727782,8.22127628326416
1746610278.7369206,-1.6568809747695923,-5.118443489074706,8.219697952270508
1746610278.8275847,-1.6695061922073364,-5.021454334259032,8.234326362609863
1746610278.9232793,-1.6734662055969238,-5.024869441986083,8.244842529296875
1746610279.0239913,-1.6585030555725098,-5.069689273834228,8.236018180847168
1746610279.1163712,-1.6730105876922607,-5.065776348114013,8.247901916503906
1746610279.2227914,-1.6606584787368774,-5.052437782287597,8.214054107666016
1746610279.4730096,-1.7477753162384033,-5.088851928710937,8.284906387329102
1746610279.486937,-1.654820442199707,-5.08615493774414,8.231270790100098
1746610279.5204225,-1.641654133796692,-5.058473110198974,8.275764465332031
1746610279.605813,-1.5736827850341797,-5.0673813819885245,7.992754459381104
1746610279.695238,-1.6340559720993042,-5.024531841278075,8.285003662109375
1746610279.7904527,-1.6496086120605469,-5.03891897201538,8.20623779296875
1746610279.8881748,-1.6282384395599365,-5.027543067932128,8.232376098632812
1746610279.9835653,-1.6765280961990356,-5.067321300506591,8.245888710021973
1746610280.0786796,-1.6670469045639038,-5.018742561340331,8.252692222595215
1746610280.1761744,-1.6455248594284058,-5.031564712524413,8.274008750915527
1746610280.2694683,-1.6372218132019043,-5.044258594512939,8.273963928222656
1746610280.3702004,-1.5346335172653198,-5.209725856781005,8.383313179016113
1746610280.4627466,-1.7108824253082275,-5.0968050956726065,8.30012321472168
1746610280.5593636,-1.6474964618682861,-5.008553981781005,8.317924499511719
1746610280.666742,-1.7046931982040405,-5.065687656402587,8.253287315368652
1746610280.750903,-1.6567704677581787,-5.02802276611328,8.228208541870117
1746610280.8470478,-1.6550590991973877,-5.1372971534728995,8.23106575012207
1746610280.9435108,-1.6613165140151978,-5.011354446411132,8.218423843383789
1746610281.039466,-1.6408113241195679,-5.051167488098144,8.216866493225098
1746610281.1381993,-1.6466575860977173,-5.048738479614257,8.261094093322754
1746610281.2307966,-1.6581093072891235,-5.033547401428222,8.205042839050293
1746610281.327334,-1.6433405876159668,-5.039577960968017,8.310205459594727
1746610281.4243293,-1.6353574991226196,-5.058498859405517,8.212241172790527
1746610281.5179212,-1.6883469820022583,-5.063650131225585,8.253581047058105
1746610281.624316,-1.654408574104309,-5.00235366821289,8.247079849243164
1746610281.7139597,-1.6914056539535522,-5.066272258758544,8.254533767700195
1746610281.809989,-1.6567109823226929,-5.0762314796447745,8.238651275634766
1746610281.906077,-1.473016619682312,-4.965062141418456,8.21985149383545
1746610282.0184753,-1.6884746551513672,-5.097977638244628,8.251067161560059
1746610282.1006613,-1.651951789855957,-5.042704582214355,8.215536117553711
1746610282.1919308,-1.6384267807006836,-5.030034065246581,8.23272705078125
1746610282.2892306,-1.658239722251892,-5.030361652374267,8.220518112182617
1746610282.383616,-1.6690433025360107,-5.038966178894042,8.246541976928711
1746610282.4793696,-1.671557903289795,-5.033844470977782,8.260613441467285
1746610282.5836167,-1.6804829835891724,-5.018341541290282,8.267172813415527
1746610282.6714802,-1.6671943664550781,-5.06825304031372,8.246709823608398
1746610282.7708364,-1.674564003944397,-5.070149898529052,8.253349304199219
1746610282.8684018,-1.6542823314666748,-5.0124239921569815,8.263484001159668
1746610282.960757,-1.667620301246643,-5.06321096420288,8.265337944030762
1746610283.0611897,-1.619395136833191,-5.092836380004882,8.20785903930664
1746610283.1529422,-1.6933043003082275,-5.017748832702636,8.229066848754883
1746610283.2504935,-1.6697574853897095,-5.07156753540039,8.255565643310547
1746610283.3447757,-1.6994574069976807,-5.1246299743652335,8.319218635559082
1746610283.4418201,-1.6536928415298462,-4.977002143859862,8.25071907043457
1746610283.5410845,-1.6687195301055908,-5.05872344970703,8.252687454223633
1746610283.6338005,-1.6656700372695923,-5.0573763847351065,8.24604320526123
1746610283.7360928,-1.6818833351135254,-4.987773418426513,8.23099136352539
1746610283.836422,-1.6263635158538818,-5.048654079437255,8.18978500366211
1746610284.0763505,-1.6808435916900635,-5.098412513732909,8.229838371276855
1746610284.0947628,-1.6447302103042603,-5.027251243591308,8.23046875
1746610284.122311,-1.6751114130020142,-5.040112495422362,8.257161140441895
1746610284.2139003,-1.6713154315948486,-5.048966407775878,8.25400161743164
1746610284.3077881,-1.6690502166748047,-5.0516929626464835,8.23851203918457
1746610284.4040992,-1.659140706062317,-5.0560617446899405,8.247091293334961
1746610284.5028007,-1.6470640897750854,-5.030555725097655,8.238238334655762
1746610284.5952265,-1.6711195707321167,-5.044975280761718,8.230321884155273
1746610284.6914425,-1.6542030572891235,-5.043725967407226,8.246390342712402
1746610284.787282,-1.651999831199646,-5.04203701019287,8.25042724609375
1746610284.8845868,-1.6649569272994995,-5.046532154083251,8.231989860534668
1746610284.9837103,-1.6472132205963135,-5.058739662170409,8.227849006652832
1746610285.0768921,-1.658607006072998,-5.06134796142578,8.215323448181152
1746610285.17265,-1.6535362005233765,-5.061502456665038,8.22799015045166
1746610285.2701616,-1.6649647951126099,-5.046095371246337,8.23947811126709
1746610285.3645625,-1.6390904188156128,-5.066559314727782,8.253168106079102
1746610285.4664454,-1.6433002948760986,-5.031855583190917,8.253437995910645
1746610285.557767,-1.6644803285598755,-4.997735023498534,8.287220001220703
1746610285.6520684,-1.6562247276306152,-5.026714801788329,8.242757797241211
1746610285.7480342,-1.6742321252822876,-5.109885692596435,8.22275447845459
1746610285.9331813,-1.6743285655975342,-5.03529405593872,8.229315757751465
1746610286.0169518,-1.6308211088180542,-5.034613132476806,8.244065284729004
1746610286.0530374,-1.6660860776901245,-5.065241813659667,8.22873306274414
1746610286.1434305,-1.6277482509613037,-5.0042986869812,8.225408554077148
1746610286.2298012,-1.6561214923858643,-5.061301708221435,8.233563423156738
1746610286.326095,-1.6590114831924438,-5.0488877296447745,8.222922325134277
1746610286.4412904,-1.6575026512145996,-5.042282581329345,8.24093246459961
1746610286.5211313,-1.6661285161972046,-5.038172245025634,8.242267608642578
1746610286.6147838,-1.6644489765167236,-5.05072784423828,8.22997760772705
1746610286.7365615,-1.6798996925354004,-5.086534500122069,8.239580154418945
1746610286.8050964,-1.6657673120498657,-5.032711505889892,8.250372886657715
1746610286.9042835,-1.6413767337799072,-5.063505172729491,8.238265991210938
1746610286.9968653,-1.6499221324920654,-5.066195487976073,8.227560043334961
1746610287.0932362,-1.6356546878814697,-5.038379669189452,8.229516983032227
1746610287.1904347,-1.644469976425171,-5.045979022979735,8.228069305419922
1746610287.2860982,-1.6753119230270386,-5.0816612243652335,8.250179290771484
1746610287.3857803,-1.6705831289291382,-5.05806541442871,8.256508827209473
1746610287.4779482,-1.6973602771759033,-5.044949531555175,8.24716567993164
1746610287.5741558,-1.6467775106430054,-5.05011749267578,8.244220733642578
1746610287.7152555,-1.6633591651916504,-5.081201553344726,8.2403564453125
1746610287.7667866,-1.6500778198242188,-5.071470260620116,8.234312057495117
1746610287.8655887,-1.6478818655014038,-5.063264846801757,8.243476867675781
1746610287.9592218,-1.6436502933502197,-5.159000396728515,8.326078414916992
1746610288.0559037,-1.6544550657272339,-4.988324642181396,8.27094841003418
1746610288.151246,-1.6908833980560303,-5.136235237121581,8.423921585083008
1746610288.2474148,-1.7168300151824951,-4.96081781387329,8.234223365783691
1746610288.3465273,-1.6246904134750366,-5.133384704589843,8.192163467407227
1746610288.4394815,-1.673499584197998,-5.120989322662353,8.23751449584961
1746610288.5351195,-1.6281951665878296,-4.97051191329956,8.229013442993164
1746610288.6324055,-1.654270052909851,-5.085568904876708,8.245272636413574
1746610288.728784,-1.6513605117797852,-5.025669574737548,8.238882064819336
1746610288.8342001,-1.6595593690872192,-5.018765926361083,8.249194145202637
1746610288.9207067,-1.6830068826675415,-5.096000671386718,8.245826721191406
1746610289.016943,-1.647959589958191,-5.046733856201171,8.234861373901367
1746610289.1235027,-1.6672486066818237,-5.058710575103759,8.2540922164917
1746610289.210279,-1.6597408056259155,-5.037989616394042,8.25232219696045
1746610289.3192682,-1.6588431596755981,-5.055210590362548,8.244545936584473
1746610289.4072633,-1.6604654788970947,-5.050096988677978,8.232035636901855
1746610289.4975317,-1.6689605712890625,-5.047931671142577,8.224359512329102
1746610289.5937724,-1.6684004068374634,-5.048990249633788,8.238951683044434
1746610289.6897225,-1.6581698656082153,-5.0564866065978995,8.233110427856445
1746610289.7898428,-1.668323278427124,-5.054319381713866,8.232872009277344
1746610289.881924,-1.660537600517273,-5.040128707885741,8.241353988647461
1746610290.0387745,-1.659456729888916,-5.059299945831298,8.249573707580566
1746610290.0749116,-1.6646616458892822,-5.0496788024902335,8.223297119140625
1746610290.1705074,-1.6627168655395508,-5.050729751586913,8.246953964233398
1746610290.2691102,-1.658920168876648,-5.057070732116698,8.23830795288086
1746610290.3631039,-1.6596500873565674,-5.023138999938964,8.235907554626465
1746610290.4590268,-1.612008810043335,-5.071396350860595,8.21175479888916
1746610290.5530958,-1.6514750719070435,-5.072587490081786,8.227313041687012
1746610290.6562016,-1.6879401206970215,-5.004374027252196,8.241450309753418
1746610290.7496552,-1.7115838527679443,-5.074341297149657,8.270187377929688
1746610290.8441026,-1.6451854705810547,-5.0562801361083975,8.23744010925293
1746610290.9396813,-1.6754324436187744,-5.08180809020996,8.232173919677734
1746610291.0357969,-1.6618318557739258,-5.04001760482788,8.228732109069824
1746610291.1298015,-1.6681082248687744,-5.072534561157226,8.24488353729248
1746610291.2382696,-1.6614394187927246,-5.059862136840819,8.2423734664917
1746610291.3236206,-1.6649318933486938,-5.038320064544677,8.234001159667969
1746610291.4210904,-1.6545695066452026,-5.076246738433837,8.238234519958496
1746610291.5161822,-1.7000926733016968,-5.051715850830077,8.230436325073242
1746610291.6137588,-1.6609492301940918,-5.026229858398437,8.308515548706055
1746610291.7214284,-1.689190149307251,-5.0715913772583,8.256677627563477
1746610291.8041854,-1.634117841720581,-5.089250564575194,8.219400405883789
1746610291.8992023,-1.7014720439910889,-4.994364261627196,8.185518264770508
1746610291.9960096,-1.7038629055023193,-5.0054259300231925,8.225878715515137
1746610292.0911512,-1.6820404529571533,-4.954605102539062,8.20771312713623
1746610292.1905575,-1.7315205335617065,-5.052205562591552,8.203653335571289
1746610292.2829115,-1.6802959442138672,-5.094446182250976,8.26106071472168
1746610292.379507,-1.7141691446304321,-5.086871147155761,8.152941703796387
1746610292.4752588,-1.6907850503921509,-5.133173465728759,8.243173599243164
1746610292.5792234,-1.655884861946106,-4.9781785011291495,8.249537467956543
1746610292.6779544,-1.6536422967910767,-5.0031771659851065,8.239899635314941
1746610292.7636468,-1.6749441623687744,-5.119822978973388,8.232492446899414
1746610292.8589432,-1.6670100688934326,-5.018805980682372,8.249335289001465
1746610292.9553678,-1.6900049448013306,-5.042281627655028,8.253738403320312
1746610293.0511024,-1.6616607904434204,-5.06797695159912,8.241974830627441
1746610293.151082,-1.6541426181793213,-5.0333919525146475,8.247179985046387
1746610293.2465482,-1.6485285758972168,-5.001854419708251,8.243678092956543
1746610293.3431835,-1.6628645658493042,-5.024188041687011,8.24343204498291
1746610293.4363043,-1.658442497253418,-5.06620693206787,8.23062801361084
1746610293.5324364,-1.6500798463821411,-5.025071144104003,8.238422393798828
1746610293.6325946,-1.663642406463623,-5.0331382751464835,8.242044448852539
1746610293.7252054,-1.6683274507522583,-5.055826663970946,8.24570083618164
1746610293.9500382,-1.6327472925186157,-5.0574350357055655,8.326117515563965
1746610293.965851,-1.670586109161377,-4.961687088012694,8.225034713745117
1746610294.0142996,-1.6194896697998047,-5.085313320159911,8.194822311401367
1746610294.122118,-1.5257935523986816,-4.788916587829589,8.036847114562988
1746610294.2139528,-1.717764973640442,-5.152753829956054,8.288459777832031
1746610294.3006632,-1.5666983127593994,-5.063471317291259,8.254429817199707
1746610294.4014645,-1.6372884511947632,-5.065358638763427,8.242140769958496
1746610294.4955006,-1.6707096099853516,-4.984728336334228,8.24162769317627
1746610294.5921109,-1.6687617301940918,-5.079154968261718,8.237565040588379
1746610294.6873052,-1.6623822450637817,-5.073877811431884,8.234538078308105
1746610294.7839699,-1.6605221033096313,-5.023039817810058,8.227574348449707
1746610294.8801112,-1.6720525026321411,-5.072772979736327,8.239943504333496
1746610294.9758842,-1.6681098937988281,-5.063457489013671,8.250182151794434
1746610295.0752773,-1.6582335233688354,-5.054879665374755,8.240620613098145
1746610295.169183,-1.621584415435791,-5.025474071502685,8.21337604522705
1746610295.2671444,-1.6563084125518799,-5.070411205291747,8.229948997497559
1746610295.3617108,-1.6953794956207275,-5.0643882751464835,8.23926067352295
1746610295.4564948,-1.6560914516448975,-5.044975280761718,8.249162673950195
1746610295.5552583,-1.6775703430175781,-5.048815250396728,8.252840995788574
1746610295.6470797,-1.6494252681732178,-5.038504123687743,8.246997833251953
1746610295.7428954,-1.6527490615844727,-5.05305528640747,8.23535442352295
1746610295.8384855,-1.6649692058563232,-5.049090862274169,8.226897239685059
1746610295.9351108,-1.66310453414917,-5.050233840942382,8.231945037841797
1746610296.034494,-1.664202094078064,-5.052817821502685,8.249359130859375
1746610296.1266665,-1.6584728956222534,-5.045495033264159,8.23668384552002
1746610296.2242534,-1.6700221300125122,-5.054423332214355,8.235819816589355
1746610296.3228853,-1.6541565656661987,-5.0584044456481925,8.237981796264648
1746610296.417056,-1.6723792552947998,-5.042082786560058,8.23532772064209
1746610296.523267,-1.6648362874984741,-5.040444374084472,8.238510131835938
1746610296.6136255,-1.6652076244354248,-5.061142921447753,8.24348258972168
1746610296.7093256,-1.6552495956420898,-5.027695178985595,8.228856086730957
1746610296.8008182,-1.6552631855010986,-5.047457218170165,8.234537124633789
1746610296.897266,-1.6493698358535767,-5.069579601287841,8.225824356079102
1746610296.9971209,-1.664846658706665,-5.05414056777954,8.22673225402832
1746610297.090315,-1.6661231517791748,-5.037203788757323,8.243881225585938
1746610297.2608852,-1.644991397857666,-5.050797939300536,8.22807502746582
1746610297.2822313,-1.6788138151168823,-5.063315868377685,8.238103866577148
1746610297.3789287,-1.654475212097168,-5.037274360656737,8.230244636535645
1746610297.4771454,-1.6809430122375488,-5.073625564575194,8.24114990234375
1746610297.5705276,-1.6526979207992554,-5.0488219261169425,8.22304916381836
1746610297.666887,-1.6578338146209717,-5.046595096588134,8.23763656616211
1746610297.763482,-1.6609910726547241,-5.0432419776916495,8.245282173156738
1746610297.8590298,-1.6834055185317993,-5.06960105895996,8.22390365600586
1746610297.9556394,-1.6729575395584106,-5.055454730987548,8.260160446166992
1746610298.0514553,-1.6721487045288086,-5.016911029815673,8.253617286682129
1746610298.149939,-1.6737087965011597,-5.053632736206054,8.25094985961914
1746610298.2432883,-1.5943539142608643,-5.064622879028319,8.231544494628906
1746610298.3389149,-1.7080498933792114,-5.066661834716796,8.218781471252441
1746610298.4464111,-1.6869114637374878,-5.0421175956726065,8.248513221740723
1746610298.5325494,-1.6633762121200562,-5.049593925476073,8.242706298828125
1746610298.6311717,-1.6580934524536133,-5.047890186309814,8.237010955810547
1746610298.723215,-1.6623878479003906,-5.04788589477539,8.229795455932617
1746610298.8193233,-1.5484960079193115,-5.163249492645263,8.047882080078125
1746610298.9287333,-1.6639659404754639,-5.045720100402831,8.265832901000977
1746610299.0168562,-1.6958224773406982,-5.011511325836181,8.270894050598145
1746610299.1135004,-1.6616504192352295,-5.136507987976073,8.242537498474121
1746610299.2037637,-1.639918327331543,-5.037948131561278,8.20530891418457
1746610299.2996259,-1.6616495847702026,-5.041601657867431,8.209405899047852
1746610299.3983088,-1.6491434574127197,-5.122682094573974,8.213668823242188
1746610299.4928575,-1.6669046878814697,-5.034135818481444,8.237208366394043
1746610299.587461,-1.6723945140838623,-5.0257787704467765,8.24966812133789
1746610299.6830068,-1.6409741640090942,-5.05744171142578,8.256322860717773
1746610299.7791502,-1.6671578884124756,-5.060835361480712,8.233059883117676
1746610299.878768,-1.607733964920044,-5.0065269470214835,8.223313331604004
1746610299.971151,-1.679290533065796,-5.091479301452636,8.181415557861328
1746610300.0672913,-1.6460728645324707,-5.080279350280761,8.228867530822754
1746610300.16364,-1.5728002786636353,-5.070785999298095,8.267449378967285
1746610300.2591321,-1.6346129179000854,-5.036630153656005,8.254382133483887
1746610300.4545155,-1.6788541078567505,-5.027567386627196,8.217472076416016
1746610300.4717681,-1.6503546237945557,-5.0088839530944815,8.271016120910645
1746610300.5469682,-1.6727064847946167,-5.05980634689331,8.303858757019043
1746610300.6440773,-1.6852301359176636,-5.07191514968872,8.263827323913574
1746610300.7391498,-1.6397819519042969,-5.036390781402587,8.264260292053223
1746610300.8512924,-1.5722393989562988,-5.097977638244628,8.303525924682617
1746610300.932691,-1.6365299224853516,-5.086094856262206,8.218009948730469
1746610301.0277033,-1.6610023975372314,-4.998100280761718,8.213640213012695
1746610301.1266336,-1.666671872138977,-5.0454745292663565,8.250889778137207
1746610301.222722,-1.6639313697814941,-5.058107376098632,8.240046501159668
1746610301.339112,-1.6797868013381958,-5.0457677841186515,8.252021789550781
1746610301.4151537,-1.6808782815933228,-5.053223133087157,8.254728317260742
1746610301.5126154,-1.66814386844635,-5.0834875106811515,8.233916282653809
1746610301.612101,-1.675355076789856,-5.003445148468017,8.24378490447998
1746610301.7030265,-1.6470829248428345,-5.035504817962646,8.233869552612305
1746610301.8020523,-1.6776748895645142,-5.043353080749511,8.218022346496582
1746610301.8947375,-1.6292507648468018,-5.034086227416991,8.2404203414917
1746610301.9905705,-1.7076176404953003,-5.063457012176513,8.228680610656738
1746610302.0864568,-1.6700587272644043,-5.107992649078368,8.235404014587402
1746610302.1992383,-1.6582086086273193,-5.062013626098632,8.240071296691895
1746610302.3536048,-1.6741642951965332,-5.022246837615966,8.244807243347168
1746610302.423021,-1.6243847608566284,-5.121892452239989,8.277660369873047
1746610302.4920762,-1.6760011911392212,-5.0504817962646475,8.250871658325195
1746610302.573898,-1.6617755889892578,-4.989822387695312,8.22733211517334
1746610303.0602086,-1.674841284751892,-5.109441280364989,8.23601245880127
1746610303.1716306,-1.6570448875427246,-5.094092845916747,8.22808837890625
1746610303.2746892,-1.6655453443527222,-4.9953856468200675,8.253620147705078
1746610303.361389,-1.6663869619369507,-5.048876762390136,8.249746322631836
1746610303.461902,-1.6692280769348145,-5.059959411621093,8.243385314941406
1746610303.5065567,-1.645890235900879,-5.0473642349243155,8.215309143066406
1746610303.5443254,-1.6509062051773071,-5.0550522804260245,8.224137306213379
1746610303.6664844,-1.6615647077560425,-5.014644145965575,8.265624046325684
1746610303.755461,-1.674485683441162,-5.0301852226257315,8.279325485229492
1746610303.8695712,-1.636020302772522,-5.061564922332763,8.264119148254395
1746610303.9513156,-1.652700424194336,-5.071663379669189,8.242457389831543
1746610304.0000029,-1.68670654296875,-5.026777744293212,8.245327949523926
1746610304.219437,-1.677872896194458,-5.057622432708739,8.234240531921387
1746610304.2761533,-1.6894127130508423,-4.999444007873534,8.244997024536133
1746610304.5578194,-1.624963402748108,-5.014775753021239,8.232468605041504
1746610304.6593726,-1.6310536861419678,-4.968141555786132,8.330574035644531
1746610304.7397738,-1.6549718379974365,-5.008762836456298,8.285640716552734
1746610304.7708673,-1.668538212776184,-5.069021224975585,8.278244972229004
1746610304.820457,-1.6345783472061157,-4.991755962371825,8.268878936767578
1746610305.0226681,-1.6517302989959717,-5.025420188903808,8.24148178100586
1746610305.0659442,-1.6252381801605225,-5.013760566711425,8.228144645690918
1746610305.0999784,-1.6595195531845093,-5.052532196044921,8.223448753356934
1746610305.1248672,-1.6406967639923096,-5.038837909698485,8.236295700073242
1746610305.1762595,-1.657064437866211,-5.066548347473144,8.243864059448242
1746610305.2087777,-1.6844383478164673,-5.061251163482665,8.237375259399414
1746610305.2314956,-1.69590163230896,-4.975553035736083,8.251855850219727
1746610305.2461057,-1.668302297592163,-4.944947719573974,8.246642112731934
1746610305.2667632,-1.6793744564056396,-5.114497184753417,8.236944198608398
1746610305.3541925,-1.6810123920440674,-5.031275272369384,8.256728172302246
1746610305.4502597,-1.6509863138198853,-5.037950992584228,8.251282691955566
1746610305.548449,-1.6583242416381836,-5.064898967742919,8.249452590942383
1746610305.6453967,-1.6414486169815063,-5.008709907531737,8.190553665161133
1746610305.7380505,-1.6170951128005981,-5.029019355773925,8.270757675170898
1746610305.834756,-1.7064168453216553,-4.994493484497069,8.288211822509766
1746610305.9306927,-1.6936558485031128,-5.107765197753905,8.312682151794434
1746610306.0272403,-1.6804230213165283,-5.114380359649657,8.278681755065918
1746610306.130025,-1.671001672744751,-5.038557052612304,8.234720230102539
1746610306.2171001,-1.6855580806732178,-5.009252071380614,8.286698341369629
1746610306.3127387,-1.650105357170105,-5.032226085662841,8.334546089172363
1746610306.4135377,-1.657541036605835,-5.0239901542663565,8.22898006439209
1746610306.5090954,-1.6369014978408813,-5.143180847167968,8.338601112365723
1746610306.6063356,-1.680596113204956,-5.003722190856933,8.139558792114258
1746610306.6967652,-1.695063829421997,-5.032643318176269,8.143840789794922
1746610306.7926161,-1.653471827507019,-5.156010150909423,8.179588317871094
1746610306.8920772,-1.6105856895446777,-4.950335502624511,8.233260154724121
1746610306.9884834,-1.6460564136505127,-5.05475616455078,8.232141494750977
1746610307.0852735,-1.6741743087768555,-5.117175579071044,8.236825942993164
1746610307.180218,-1.6937271356582642,-5.0360960960388175,8.251158714294434
1746610307.2765121,-1.6427754163742065,-5.020014762878417,8.219393730163574
1746610307.371585,-1.646569013595581,-5.12937831878662,8.251240730285645
1746610307.4686394,-1.609952449798584,-5.024009227752685,8.226658821105957
1746610307.567181,-1.6111044883728027,-5.023157596588134,8.226458549499512
1746610307.6600654,-1.6662415266036987,-5.052014350891112,8.234025955200195
1746610307.7566805,-1.6457252502441406,-5.0403356552124015,8.244234085083008
1746610307.8510175,-1.6506506204605103,-5.018916130065917,8.301377296447754
1746610307.9478989,-1.6734308004379272,-5.0437936782836905,8.26490592956543
1746610308.0483115,-1.68203604221344,-5.078268527984618,8.245344161987305
1746610308.1402726,-1.7004730701446533,-5.043221950531005,8.242056846618652
1746610308.2359176,-1.6878060102462769,-5.043309688568114,8.255096435546875
1746610308.331709,-1.6366965770721436,-5.063021183013915,8.226361274719238
1746610308.4293501,-1.661302089691162,-5.055806636810302,8.230788230895996
1746610308.5408654,-1.6487540006637573,-5.0511765480041495,8.22335433959961
1746610308.6208286,-1.6619722843170166,-5.041422367095946,8.232014656066895
1746610308.71689,-1.6410703659057617,-5.05416440963745,8.22165298461914
1746610308.8134575,-1.6520193815231323,-5.052666664123534,8.251740455627441
1746610308.910859,-1.6644883155822754,-5.014843463897704,8.257863998413086
1746610309.0083382,-1.6646702289581299,-5.037381172180175,8.259760856628418
1746610309.1008844,-1.6796828508377075,-5.070109844207763,8.239371299743652
1746610309.1971917,-1.6542547941207886,-5.062597751617431,8.240601539611816
1746610309.2928257,-1.6205220222473145,-5.095924854278564,8.243132591247559
1746610309.3891463,-1.7168805599212646,-5.0549325942993155,8.2706937789917
1746610309.4914663,-1.655532717704773,-5.007356643676757,8.258225440979004
1746610309.5808816,-1.6790821552276611,-5.082423210144042,8.217886924743652
1746610309.6780415,-1.6938862800598145,-5.008221626281737,8.265049934387207
1746610309.773928,-1.6287343502044678,-5.020548820495605,8.251938819885254
1746610309.870379,-1.6677615642547607,-5.05698013305664,8.2568359375
1746610309.969456,-1.6576228141784668,-5.036977767944335,8.245052337646484
1746610310.0619833,-1.6613332033157349,-5.03733205795288,8.241008758544922
1746610310.1583107,-1.6647313833236694,-5.048234939575194,8.241179466247559
1746610310.2538292,-1.6735742092132568,-5.068307876586913,8.248515129089355
1746610310.3542697,-1.6612915992736816,-5.057163715362548,8.236151695251465
1746610310.4663315,-1.697271466255188,-5.082868099212646,8.171720504760742
1746610310.5427756,-1.6623040437698364,-5.034655570983886,8.253663063049316
1746610310.6467576,-1.6340324878692627,-5.012070655822753,8.218281745910645
1746610310.880782,-1.6579126119613647,-5.041091442108153,8.209856033325195
1746610310.9663968,-1.649804711341858,-5.074547767639159,8.238000869750977
1746610311.0072367,-1.6669247150421143,-5.053645610809325,8.233062744140625
1746610311.0651705,-1.6563596725463867,-5.007770061492919,8.233898162841797
1746610311.1268978,-1.6574147939682007,-5.087420463562011,8.243553161621094
1746610311.2153757,-1.650869607925415,-5.056622028350829,8.234994888305664
1746610311.310504,-1.654212236404419,-5.038123130798339,8.237701416015625
1746610311.417169,-1.6586968898773193,-5.033145904541015,8.248771667480469
1746610311.5021918,-1.6386233568191528,-5.065248489379882,8.241591453552246
1746610311.5981865,-1.6870932579040527,-5.038163185119628,8.225174903869629
1746610311.6948428,-1.649171233177185,-5.0815978050231925,8.23460578918457
1746610311.7909482,-1.671108365058899,-5.083898067474364,8.247529029846191
1746610311.894185,-1.6593071222305298,-5.0215086936950675,8.251269340515137
1746610311.982949,-1.6482948064804077,-5.040118694305419,8.23843765258789
1746610312.0791068,-1.6477645635604858,-5.048594951629638,8.229360580444336
1746610312.1749613,-1.644454002380371,-5.051738739013671,8.240984916687012
1746610312.2712047,-1.6682589054107666,-5.050947666168212,8.242168426513672
1746610312.3719268,-1.649997591972351,-5.058788776397704,8.227937698364258
1746610312.46406,-1.6695252656936646,-5.068154335021972,8.238478660583496
1746610312.5597346,-1.6555284261703491,-5.041621208190917,8.236556053161621
1746610312.6563506,-1.6791378259658813,-5.052201271057128,8.259888648986816
1746610312.752183,-1.6679332256317139,-5.057684421539306,8.25752067565918
1746610312.852576,-1.6453739404678345,-5.056134700775146,8.25482177734375
1746610312.9437933,-1.6510593891143799,-5.08482789993286,8.208525657653809
1746610313.0403574,-1.6667811870574951,-5.067093849182128,8.223332405090332
1746610313.1375194,-1.7369173765182495,-5.006336212158202,8.219449996948242
1746610313.2333226,-1.5921428203582764,-5.1097774505615225,8.176155090332031
1746610313.332274,-1.778834581375122,-5.206884860992431,8.355534553527832
1746610313.4255362,-1.621954321861267,-4.811658382415771,8.301529884338379
1746610313.5214725,-1.7045707702636719,-5.184805393218993,8.256309509277344
1746610313.617268,-1.607713222503662,-4.9520907402038565,8.209611892700195
1746610313.8427835,-1.588037133216858,-5.02780532836914,8.23270320892334
1746610313.8870258,-1.6376166343688965,-5.083159923553466,8.245322227478027
1746610313.906001,-1.6693408489227295,-5.034441947937011,8.24775218963623
1746610314.0033886,-1.6719250679016113,-5.063636302947997,8.251306533813477
1746610314.1007438,-1.661515235900879,-5.045437335968017,8.232149124145508
1746610314.1947818,-1.669782280921936,-5.060714721679687,8.235912322998047
1746610314.298235,-1.6612377166748047,-5.063326835632323,8.229475021362305
1746610314.3844988,-1.6481801271438599,-5.04185390472412,8.234916687011719
1746610314.480244,-1.6541554927825928,-5.0537047386169425,8.228909492492676
1746610314.5763853,-1.682885766029358,-5.056169986724853,8.220017433166504
1746610314.752445,-1.642627239227295,-5.038820266723632,8.234604835510254
1746610314.809523,-1.662750244140625,-5.041888236999511,8.241991996765137
1746610314.8810143,-1.6572977304458618,-5.04636526107788,8.233153343200684
1746610315.0700467,-1.6576199531555176,-5.059820652008056,8.242094039916992
1746610315.218565,-1.6617298126220703,-5.006243228912353,8.245036125183105
1746610315.3231387,-1.667922019958496,-5.037949562072753,8.246903419494629
1746610315.3703527,-1.6668975353240967,-5.066645622253417,8.251168251037598
1746610315.4726079,-1.6545871496200562,-5.036205768585204,8.231861114501953
1746610315.5161104,-1.6604124307632446,-5.059885025024413,8.2617769241333
1746610315.66392,-1.687674641609192,-5.025754451751708,8.246438980102539
1746610315.733464,-1.656968593597412,-5.044243335723876,8.227758407592773
1746610315.8069887,-1.6709794998168945,-5.089704513549804,8.235434532165527
1746610315.8541062,-1.6574910879135132,-5.022568702697753,8.242008209228516
1746610315.9310322,-1.6578048467636108,-5.052606582641601,8.244909286499023
1746610316.0960977,-1.6487009525299072,-5.031342983245849,8.24256706237793
1746610316.1324072,-1.6498559713363647,-5.056144714355468,8.244168281555176
1746610316.222448,-1.6713343858718872,-5.03648805618286,8.256928443908691
1746610316.3088949,-1.6551806926727295,-5.039983272552489,8.244367599487305
1746610316.403146,-1.6715164184570312,-5.04319143295288,8.244528770446777
1746610316.4990847,-1.6541166305541992,-5.032785415649413,8.251471519470215
1746610316.5954933,-1.650351643562317,-5.060757637023925,8.233067512512207
1746610316.694994,-1.656841516494751,-5.066575527191161,8.223292350769043
1746610316.7876272,-1.6688785552978516,-5.0261812210083,8.243250846862793
1746610316.8828683,-1.6559953689575195,-5.03390884399414,8.228147506713867
1746610316.9807448,-1.6665654182434082,-5.04330825805664,8.244366645812988
1746610317.0763705,-1.6620714664459229,-5.054280281066894,8.246164321899414
1746610317.175397,-1.6584649085998535,-5.029509544372558,8.246683120727539
1746610317.2682238,-1.6441837549209595,-5.047934055328368,8.255125999450684
1746610317.3645742,-1.681838035583496,-5.063766956329345,8.248625755310059
1746610317.459958,-1.6396242380142212,-5.0435094833374015,8.258075714111328
1746610317.5561721,-1.6858738660812378,-5.073110103607177,8.225400924682617
1746610317.6639016,-1.6533666849136353,-5.068317890167235,8.229568481445312
1746610317.7484462,-1.6350693702697754,-5.071758270263671,8.249153137207031
1746610317.8439124,-1.7019424438476562,-5.011200428009032,8.286297798156738
1746610317.9399037,-1.6668511629104614,-5.003911018371581,8.221009254455566
1746610318.0359678,-1.6653903722763062,-5.100226402282714,8.25275993347168
1746610318.1460233,-1.656628966331482,-5.059099197387694,8.235991477966309
1746610318.228494,-1.6843982934951782,-5.032628536224364,8.249332427978516
1746610318.324499,-1.653096318244934,-5.039135456085204,8.255709648132324
1746610318.419982,-1.6651725769042969,-5.095448970794677,8.238508224487305
1746610318.5162761,-1.6621259450912476,-5.0063180923461905,8.225373268127441
1746610318.6277888,-1.6539931297302246,-5.034406661987304,8.25284481048584
1746610318.711983,-1.6587773561477661,-5.0589656829833975,8.237848281860352
1746610318.8053067,-1.6507508754730225,-5.050266742706298,8.22473430633545
1746610318.9033287,-1.6466431617736816,-5.053087234497069,8.233966827392578
1746610318.9963887,-1.648963451385498,-5.063728809356689,8.221914291381836
1746610319.1547327,-1.6606707572937012,-5.038318634033202,8.24231243133545
1746610319.1886408,-1.6607439517974854,-5.036590099334716,8.246628761291504
1746610319.2842689,-1.669979453086853,-5.045343399047851,8.250782012939453
1746610319.3833907,-1.6784433126449585,-5.051409244537353,8.252702713012695
1746610319.4790869,-1.6502256393432617,-5.04985761642456,8.23311710357666
1746610319.5754068,-1.6820249557495117,-4.970064640045165,8.255497932434082
1746610319.6717093,-1.6514554023742676,-5.082346439361571,8.241323471069336
1746610319.768468,-1.6464550495147705,-5.095075130462646,8.245205879211426
1746610319.8634562,-1.655401587486267,-5.015904903411864,8.227639198303223
1746610319.9594991,-1.6611555814743042,-5.064042091369628,8.241329193115234
1746610320.056239,-1.5224379301071167,-5.272161006927489,8.46607780456543
1746610320.1513617,-1.6310479640960693,-4.958967685699462,8.15672492980957
1746610320.247106,-1.5591967105865479,-5.051715373992919,8.104632377624512
1746610320.340992,-1.6074881553649902,-5.233191490173339,8.207073211669922
1746610320.437953,-1.610849142074585,-4.913775920867919,8.216938018798828
1746610320.5377364,-1.6411188840866089,-5.058550357818603,8.225713729858398
1746610320.6301546,-1.6604328155517578,-5.053147792816161,8.248783111572266
1746610320.7264645,-1.6693466901779175,-4.972452640533446,8.243021011352539
1746610320.822145,-1.6936677694320679,-5.088041305541991,8.255741119384766
1746610320.9187343,-1.6590782403945923,-5.0608172416687,8.238884925842285
1746610321.0966468,-1.6704857349395752,-5.06042718887329,8.247550010681152
1746610321.120608,-1.6634390354156494,-5.007585048675536,8.239585876464844
1746610321.2111473,-1.634892463684082,-5.07896852493286,8.232933044433594
1746610321.3041997,-1.6464368104934692,-5.043994903564452,8.237019538879395
1746610321.3990965,-1.6594668626785278,-5.000030994415282,8.229952812194824
1746610321.4986022,-1.6652979850769043,-5.051453113555907,8.24543285369873
1746610321.5910854,-1.6734999418258667,-5.064020633697509,8.226984977722168
1746610321.7300403,-1.660050868988037,-5.059701442718505,8.240888595581055
1746610321.7835214,-1.6695457696914673,-5.035550117492675,8.253814697265625
1746610321.8792074,-1.6525324583053589,-5.053968429565429,8.254860877990723
1746610321.9784064,-1.6525038480758667,-5.054109096527099,8.242818832397461
1746610322.0710406,-1.6565533876419067,-5.0504207611083975,8.235418319702148
1746610322.1683137,-1.6719163656234741,-5.032465934753417,8.23656940460205
1746610322.264092,-1.6633716821670532,-5.043869495391845,8.2366304397583
1746610322.361605,-1.6533089876174927,-5.038104057312011,8.246341705322266
1746610322.4606667,-1.653145670890808,-5.04508876800537,8.245023727416992
1746610322.5535355,-1.6636745929718018,-5.035557746887206,8.249743461608887
1746610322.656713,-1.657497763633728,-5.045903205871581,8.2515230178833
1746610322.7451217,-1.6586863994598389,-5.045191287994384,8.240850448608398
1746610322.8418453,-1.6614990234375,-5.052001953124999,8.238319396972656
1746610322.9388165,-1.6590970754623413,-5.073597908020019,8.223628997802734
1746610323.0342987,-1.6537446975708008,-5.031538486480712,8.226602554321289
1746610323.1300597,-1.6583168506622314,-5.050774097442626,8.235077857971191
1746610323.2264183,-1.6514756679534912,-5.043943405151366,8.229425430297852
1746610323.3204517,-1.665157675743103,-5.043471336364745,8.246747016906738
1746610323.4304755,-1.6561659574508667,-5.056132316589355,8.24502182006836
1746610323.5228298,-1.6548817157745361,-5.040871143341064,8.256291389465332
1746610323.9740744,-1.6710145473480225,-5.0361971855163565,8.251063346862793
1746610324.0127425,-1.6659657955169678,-5.037236690521239,8.242104530334473
1746610324.0484068,-1.6611065864562988,-5.050836563110351,8.250078201293945
1746610324.0789042,-1.6595454216003418,-5.043991088867187,8.245731353759766
1746610324.1027322,-1.6564397811889648,-5.054051399230956,8.241388320922852
1746610324.1220934,-1.6591579914093018,-5.048687458038329,8.236311912536621
1746610324.1901004,-1.6670172214508057,-5.04594850540161,8.237824440002441
1746610324.2805853,-1.6542606353759766,-5.040547370910644,8.239557266235352
1746610324.3809583,-1.6719659566879272,-5.044743537902831,8.240829467773438
1746610324.473196,-1.6666570901870728,-5.051531314849853,8.236151695251465
1746610324.5697663,-1.6646547317504883,-5.054841995239257,8.243599891662598
1746610324.6658807,-1.666024088859558,-5.04979658126831,8.244609832763672
1746610324.7616193,-1.661924123764038,-5.038362026214599,8.23379898071289
1746610324.8623092,-1.6590856313705444,-5.0524535179138175,8.245455741882324
1746610324.9536977,-1.6682559251785278,-5.052758216857909,8.250201225280762
1746610325.049863,-1.6655664443969727,-5.038968563079833,8.256056785583496
1746610325.1462436,-1.6631485223770142,-5.047379493713378,8.245861053466797
1746610325.2421174,-1.6640589237213135,-5.045238018035888,8.241205215454102
1746610325.3435571,-1.6642470359802246,-5.028884887695312,8.230655670166016
1746610325.4338472,-1.6719850301742554,-5.043142318725585,8.239867210388184
1746610325.5307965,-1.6423438787460327,-5.062457084655761,8.234606742858887
1746610325.6285484,-1.516331672668457,-5.045316696166991,8.357706069946289
1746610325.723936,-1.6145473718643188,-5.062822341918944,8.27463436126709
1746610325.8226748,-1.752509593963623,-5.03210163116455,8.236520767211914
1746610325.9152887,-1.6789066791534424,-5.079543590545653,8.271082878112793
1746610326.0176554,-1.704515814781189,-5.0652475357055655,8.21215534210205
1746610326.1131256,-1.681403636932373,-5.060083866119384,8.153046607971191
1746610326.2046478,-1.6469240188598633,-5.027778148651122,8.263117790222168
1746610326.304246,-1.6498925685882568,-5.027128219604491,8.252833366394043
1746610326.396698,-1.6338242292404175,-5.093858718872069,8.208894729614258
1746610326.4927695,-1.6555339097976685,-5.0201659202575675,8.242630004882812
1746610326.588456,-1.5969277620315552,-4.9814510345458975,8.193059921264648
1746610326.6845372,-1.6972620487213135,-5.101458072662353,8.23885440826416
1746610326.7835963,-1.6779966354370117,-5.0286779403686515,8.255255699157715
1746610326.8767867,-1.6443674564361572,-5.018207550048827,8.235613822937012
1746610326.9723268,-1.6477224826812744,-5.080899715423583,8.251214981079102
1746610327.0684578,-1.7635327577590942,-5.0497798919677725,8.305445671081543
1746610327.1645422,-1.7019752264022827,-4.976644039154052,8.220121383666992
1746610327.2659438,-1.467054009437561,-5.134867668151855,8.274209022521973
1746610327.3589776,-1.646358609199524,-5.002927303314208,8.212902069091797
1746610327.4536254,-1.713686466217041,-5.076641559600829,8.234708786010742
1746610327.6713853,-1.6963624954223633,-5.058513164520263,8.269752502441406
1746610327.7115135,-1.6988309621810913,-4.995013713836669,8.262937545776367
1746610327.7688918,-1.6541101932525635,-5.069991588592528,8.252179145812988
1746610327.872037,-1.635266661643982,-5.026204586029052,8.24023151397705
1746610328.127291,-1.6438382863998413,-5.009892940521239,8.235946655273438
1746610328.1666284,-1.6556947231292725,-5.046847343444823,8.233101844787598
1746610328.1952028,-1.6709823608398438,-5.083003044128417,8.241473197937012
1746610328.2501924,-1.6511324644088745,-5.041785240173339,8.25307559967041
1746610328.3259294,-1.6635714769363403,-5.026969909667968,8.24863338470459
1746610328.4429536,-1.6267579793930054,-5.067375183105468,8.217487335205078
1746610328.5085814,-1.655279278755188,-5.046088218688964,8.244087219238281
1746610328.604634,-1.6682699918746948,-5.009714603424071,8.248907089233398
1746610328.7076821,-1.6695704460144043,-5.056655406951903,8.23282241821289
1746610328.799209,-1.6797345876693726,-5.0632920265197745,8.245025634765625
1746610328.895768,-1.679718255996704,-5.045238494873046,8.239273071289062
1746610328.9913483,-1.6607801914215088,-5.065032958984374,8.241788864135742
1746610329.0875492,-1.6494923830032349,-5.03934621810913,8.241888046264648
1746610329.210415,-1.6691688299179077,-5.040682792663573,8.23764705657959
1746610329.279351,-1.678437352180481,-5.057010650634765,8.222373962402344
1746610329.3776922,-1.6452094316482544,-5.037890911102294,8.231562614440918
1746610329.4713216,-1.6605008840560913,-5.065910816192626,8.238770484924316
1746610329.575609,-1.6512902975082397,-5.030629158020019,8.249836921691895
1746610329.8621008,-1.6710093021392822,-5.055271625518798,8.245746612548828
1746610329.8914695,-1.669211745262146,-5.063028335571288,8.250381469726562
1746610329.916982,-1.647874355316162,-5.064251422882079,8.241150856018066
1746610329.9528556,-1.658268928527832,-5.065193653106689,8.234821319580078
1746610330.047697,-1.659506916999817,-5.050038337707519,8.24959945678711
1746610330.1541805,-1.651007890701294,-5.065973281860351,8.285171508789062
1746610330.243525,-1.639011263847351,-5.036834716796874,8.238245010375977
1746610330.3379495,-1.613990068435669,-5.016822338104247,8.215882301330566
1746610330.4339938,-1.655896544456482,-5.047625541687011,8.217848777770996
1746610330.5336864,-1.6571093797683716,-5.049014091491698,8.230560302734375
1746610330.6349351,-1.6719342470169067,-5.018691062927245,8.347319602966309
1746610330.7193983,-1.640909194946289,-5.171951293945312,8.242705345153809
1746610330.8171797,-1.7010085582733154,-4.941728115081786,8.279452323913574
1746610330.915062,-1.6359161138534546,-5.052229404449462,8.211312294006348
1746610331.0122368,-1.6843410730361938,-5.176355361938476,8.239709854125977
1746610331.1082625,-1.6411100625991821,-4.9611496925353995,8.241654396057129
1746610331.2007346,-1.6699225902557373,-5.083820343017577,8.247008323669434
1746610331.2949378,-1.6532927751541138,-5.070136070251464,8.23870849609375
1746610331.392528,-1.6546108722686768,-5.0274386405944815,8.235386848449707
1746610331.4870102,-1.6592649221420288,-5.016665458679198,8.232833862304688
1746610331.58654,-1.647621512413025,-5.045634269714355,8.226507186889648
1746610331.6790907,-1.6712898015975952,-5.068411350250243,8.216444969177246
1746610331.7755022,-1.660054326057434,-5.028557777404784,8.250182151794434
1746610331.8723166,-1.6928223371505737,-5.027799606323241,8.252578735351562
1746610331.9681296,-1.655396819114685,-5.050650119781493,8.20749282836914
1746610332.0674264,-1.6397149562835693,-5.086176395416259,8.230835914611816
1746610332.1601658,-1.64095938205719,-5.01286745071411,8.216923713684082
1746610332.2562788,-1.6902307271957397,-5.045853614807128,8.263051986694336
1746610332.3532193,-1.6488009691238403,-5.028564453124999,8.236872673034668
1746610332.448231,-1.6749356985092163,-5.089439868927001,8.235494613647461
1746610332.55269,-1.6281415224075317,-5.078534126281737,8.212821006774902
1746610332.6400213,-1.724748134613037,-5.039484500885009,8.133875846862793
1746610332.8348355,-1.639699935913086,-5.066791057586669,8.208368301391602
1746610332.8750145,-1.6707892417907715,-5.109781265258788,8.238527297973633
1746610332.9317338,-1.6074637174606323,-5.035440444946288,8.240272521972656
1746610333.074845,-1.6747862100601196,-5.018972396850585,8.233258247375488
1746610333.1453395,-1.6869436502456665,-5.103195667266845,8.244745254516602
1746610333.321849,-1.6570414304733276,-5.043945789337157,8.229153633117676
1746610333.3700762,-1.6793956756591797,-5.0741209983825675,8.256596565246582
1746610333.416088,-1.6657840013504028,-5.042879104614257,8.236679077148438
1746610333.508623,-1.6385051012039185,-5.045897960662841,8.241435050964355
1746610333.6011357,-1.650671362876892,-5.071833133697509,8.250008583068848
1746610333.698155,-1.6440850496292114,-5.024353504180907,8.228355407714844
1746610333.7936354,-1.664475440979004,-5.050181865692138,8.251063346862793
1746610333.8904488,-1.624605417251587,-5.052441120147704,8.249736785888672
1746610333.9952157,-1.6035032272338867,-5.0244054794311515,8.196908950805664
1746610334.0821483,-1.6097991466522217,-5.132333755493163,8.23359203338623
1746610334.177914,-1.7073445320129395,-5.004713535308837,8.254114151000977
1746610334.2739573,-1.6651843786239624,-4.987179279327392,8.213957786560059
1746610334.3712533,-1.6928056478500366,-5.190980434417724,8.224189758300781
1746610334.4703758,-1.6525887250900269,-5.033020019531249,8.188605308532715
1746610334.563024,-1.6634228229522705,-5.080284118652343,8.23018741607666
1746610334.6592164,-1.6641539335250854,-5.092897415161132,8.216171264648438
1746610334.7552667,-1.6514211893081665,-5.040692806243896,8.215031623840332
1746610334.8521366,-1.6341204643249512,-5.047091007232665,8.240407943725586
1746610334.9490933,-1.580368161201477,-5.113625049591064,8.138802528381348
1746610335.044175,-1.6477283239364624,-5.077883720397948,8.214420318603516
1746610335.140096,-1.7318973541259766,-4.9915122985839835,8.268965721130371
1746610335.2366624,-1.6121351718902588,-5.020339012145995,8.301137924194336
1746610335.364322,-1.6618398427963257,-5.10898208618164,8.292448997497559
1746610335.433527,-1.5794717073440552,-5.056409835815429,8.229275703430176
1746610335.5242465,-1.6494098901748657,-5.050612926483153,8.196887016296387
1746610335.6212065,-1.6579351425170898,-5.07004690170288,8.246681213378906
1746610335.7175465,-1.6490495204925537,-5.084054470062255,8.222406387329102
1746610335.8237426,-1.6213403940200806,-5.047291755676269,8.240403175354004
1746610335.9256861,-1.6714695692062378,-5.0850510597228995,8.220172882080078
1746610336.0033994,-1.7129671573638916,-5.053689956665038,8.273609161376953
1746610336.0993679,-1.729428768157959,-5.053499698638915,8.268701553344727
1746610336.1960158,-1.6618430614471436,-5.1072139739990225,8.249266624450684
1746610336.2954972,-1.701080322265625,-5.108496665954589,8.202718734741211
1746610336.391237,-1.5631699562072754,-5.057321071624755,8.282551765441895
1746610336.4845827,-1.6130869388580322,-5.073745250701903,8.227051734924316
1746610336.6351967,-1.6796411275863647,-5.0202293395996085,8.247420310974121
1746610336.680968,-1.634727954864502,-5.050700664520263,8.290472030639648
1746610336.7761037,-1.637376308441162,-5.039333820343017,8.209040641784668
1746610336.8721173,-1.64970862865448,-5.039245605468749,8.238385200500488
1746610336.9640095,-1.6707377433776855,-5.048336505889892,8.246519088745117
1746610337.0610003,-1.69364595413208,-5.0520358085632315,8.2626371383667
1746610337.157212,-1.6780245304107666,-5.0349459648132315,8.267096519470215
1746610337.253056,-1.6641521453857422,-5.021919727325439,8.25135326385498
1746610337.3528101,-1.5685172080993652,-5.027350902557372,8.080879211425781
1746610337.4448056,-1.6577860116958618,-5.013453483581542,8.222000122070312
1746610337.5419233,-1.641872763633728,-5.023352146148681,8.217689514160156
1746610337.637638,-1.643558144569397,-5.114078998565673,8.24132251739502
1746610337.7329607,-1.6525239944458008,-5.05772304534912,8.230809211730957
1746610337.9529731,-1.6601355075836182,-5.0398287773132315,8.272937774658203
1746610337.9676228,-1.6541804075241089,-5.051955699920653,8.259990692138672
1746610338.0229976,-1.658416986465454,-5.042962074279784,8.263598442077637
1746610338.1250906,-1.6545764207839966,-4.992695331573485,8.265913009643555
1746610338.2218866,-1.653366208076477,-5.048754692077636,8.239745140075684
1746610338.3188095,-1.6753946542739868,-5.0865740776062,8.246135711669922
1746610338.4071033,-1.6457782983779907,-5.026335716247558,8.226068496704102
1746610338.503444,-1.6564329862594604,-5.084356784820556,8.234335899353027
1746610338.6055348,-1.6655642986297607,-5.055680751800536,8.230937957763672
1746610338.8483634,-1.6635124683380127,-5.029868602752685,8.237725257873535
1746610338.8876383,-1.671567678451538,-5.0416927337646475,8.255986213684082
1746610338.907537,-1.6663672924041748,-5.043982982635497,8.250954627990723
1746610338.9837644,-1.6693204641342163,-5.05451488494873,8.251102447509766
1746610339.07727,-1.6425708532333374,-5.045265674591064,8.225015640258789
1746610339.176178,-1.647479772567749,-5.06593370437622,8.231633186340332
1746610339.2722623,-1.6593351364135742,-5.074388027191161,8.239147186279297
1746610339.3679283,-1.6577285528182983,-5.041577816009521,8.235618591308594
1746610339.464376,-1.6624056100845337,-5.0611839294433585,8.228872299194336
1746610339.557685,-1.6631639003753662,-5.047917842864989,8.24334716796875
1746610339.6700172,-1.6647306680679321,-5.035268783569335,8.250741004943848
1746610339.7584765,-1.6706459522247314,-5.064199447631835,8.255696296691895
1746610339.8459198,-1.6442049741744995,-5.052537918090819,8.235662460327148
1746610339.9421203,-1.6728230714797974,-5.071990013122558,8.255905151367188
1746610340.0383658,-1.6933913230895996,-5.026057720184325,8.220419883728027
1746610340.1360493,-1.6306897401809692,-5.064538955688476,8.240720748901367
1746610340.242142,-1.6700702905654907,-5.067066192626952,8.230818748474121
1746610340.3282578,-1.6453646421432495,-5.016503334045409,8.225323677062988
1746610340.424148,-1.6436749696731567,-5.061553955078124,8.23426342010498
1746610340.5221157,-1.6441993713378906,-5.0459227561950675,8.216069221496582
1746610340.6177154,-1.637524962425232,-5.0186071395874015,8.20476245880127
1746610340.7153373,-1.647985577583313,-5.061896800994872,8.184527397155762
1746610340.8103647,-1.6126372814178467,-5.0526485443115225,8.205235481262207
1746610340.9063954,-1.610783576965332,-5.078765392303466,8.227700233459473
1746610341.0001712,-1.6465197801589966,-4.999547004699706,8.221749305725098
1746610341.1578467,-1.6798107624053955,-5.071086406707763,8.227420806884766
1746610341.2253466,-1.6729199886322021,-5.048042774200439,8.267115592956543
1746610341.2902303,-1.6698050498962402,-5.0009212493896475,8.262160301208496
1746610341.3936584,-1.6840972900390625,-5.059762001037597,8.254453659057617
1746610341.484231,-1.6046043634414673,-5.018934726715087,8.212767601013184
1746610341.5781267,-1.673231840133667,-5.14191436767578,8.305887222290039
1746610341.678433,-1.6990264654159546,-4.988101959228515,8.25167465209961
1746610341.7716324,-1.667801856994629,-5.025125980377196,8.230369567871094
1746610341.8675082,-1.639998197555542,-5.114730358123778,8.213614463806152
1746610341.962175,-1.6547106504440308,-5.088408946990966,8.193495750427246
1746610342.106578,-1.6561754941940308,-5.024752140045165,8.23208236694336
1746610342.1608758,-1.6868276596069336,-5.060821056365966,8.252653121948242
1746610342.2502186,-1.6761665344238281,-5.092022895812987,8.239753723144531
1746610342.3484378,-1.6933095455169678,-5.004958152770995,8.231743812561035
1746610342.4430213,-1.6575536727905273,-5.017124652862548,8.256099700927734
1746610342.5397005,-1.6697280406951904,-5.070722103118896,8.271371841430664
1746610342.6364377,-1.6617671251296997,-4.994920253753661,8.26733112335205
1746610342.7323644,-1.643958330154419,-5.024893283843993,8.255659103393555
1746610342.8583128,-1.6665109395980835,-5.073500156402587,8.227068901062012
1746610342.9248722,-1.664125680923462,-5.043208122253417,8.248510360717773
1746610343.0223687,-1.6541439294815063,-5.038316249847411,8.239190101623535
1746610343.3063593,-1.6312305927276611,-5.023198127746581,8.230233192443848
1746610343.3506205,-1.6731433868408203,-5.0453500747680655,8.246795654296875
1746610343.402126,-1.6705366373062134,-5.044070243835448,8.24406909942627
1746610343.430659,-1.656064510345459,-5.042309761047362,8.229809761047363
1746610343.5004723,-1.661661982536316,-5.051629066467284,8.232322692871094
1746610343.5979338,-1.6516408920288086,-5.048398971557616,8.248895645141602
1746610343.6928422,-1.6570566892623901,-5.042925834655761,8.25112533569336
1746610343.7887151,-1.6489523649215698,-5.0445799827575675,8.244503021240234
1746610343.8845947,-1.6641169786453247,-5.055460453033446,8.238749504089355
1746610343.9820063,-1.6659702062606812,-5.059380054473876,8.242486953735352
1746610344.0767183,-1.6500506401062012,-5.054948329925536,8.246977806091309
1746610344.1732347,-1.6447213888168335,-5.047891616821288,8.224034309387207
1746610344.267471,-1.6564784049987793,-5.052095890045165,8.226093292236328
1746610344.3667598,-1.6704142093658447,-5.067521572113036,8.295116424560547
1746610344.4607997,-1.636314034461975,-5.072954177856444,8.21792221069336
1746610344.5606098,-1.6674065589904785,-5.069591045379638,8.232466697692871
1746610344.6626422,-1.6861872673034668,-5.022616386413573,8.188786506652832
1746610344.7547827,-1.6904432773590088,-5.019444465637206,8.236995697021484
1746610344.844574,-1.6405712366104126,-5.030986785888671,8.233088493347168
1746610344.9441621,-1.6903660297393799,-5.058859348297118,8.24032974243164
1746610345.0433228,-1.6593413352966309,-5.045723438262939,8.244051933288574
1746610345.137693,-1.6607513427734375,-5.0367770195007315,8.23036003112793
1746610345.2288492,-1.6557708978652954,-5.061494350433349,8.24329948425293
1746610345.329058,-1.655808448791504,-5.041682720184325,8.237286567687988
1746610345.424024,-1.6648552417755127,-5.036998271942138,8.251116752624512
1746610345.5429368,-1.6702252626419067,-5.0451693534851065,8.233075141906738
1746610345.614559,-1.6607297658920288,-5.066665649414062,8.24262523651123
1746610345.7159047,-1.6552084684371948,-5.040565490722655,8.23513126373291
1746610345.8197968,-1.652388095855713,-5.046696186065673,8.243385314941406
1746610345.9010816,-1.6735574007034302,-5.045209884643554,8.248371124267578
1746610346.002562,-1.6712616682052612,-5.046093463897704,8.245988845825195
1746610346.094763,-1.6507009267807007,-5.064321517944335,8.227938652038574
1746610346.1906354,-1.6735496520996094,-5.085950374603271,8.239134788513184
1746610346.2865498,-1.6606990098953247,-4.998311519622802,8.230512619018555
1746610346.382726,-1.6544212102890015,-5.03131866455078,8.261187553405762
1746610346.4801497,-1.6802221536636353,-5.061954498291015,8.265007972717285
1746610346.573841,-1.658119559288025,-5.025458335876464,8.25732135772705
1746610346.6741433,-1.681069016456604,-5.054874420166015,8.261550903320312
1746610346.7660863,-1.6652413606643677,-5.0446996688842765,8.250011444091797
1746610346.8622444,-1.6356220245361328,-5.056358337402343,8.218642234802246
1746610346.9619424,-1.6607029438018799,-5.074384212493896,8.22256851196289
1746610347.0548809,-1.6626795530319214,-5.040697574615478,8.22928237915039
1746610347.1522484,-1.6761945486068726,-5.06181764602661,8.240118980407715
1746610347.2472105,-1.663618564605713,-5.0600547790527335,8.227676391601562
1746610347.3412173,-1.6661343574523926,-5.031359672546386,8.245208740234375
1746610347.4415922,-1.6679794788360596,-5.052841663360595,8.228766441345215
1746610347.5360737,-1.666465401649475,-5.05860137939453,8.231069564819336
1746610347.6341095,-1.6760098934173584,-5.059444904327392,8.22802734375
1746610347.7268798,-1.6616933345794678,-5.053508758544921,8.23635196685791
1746610347.822486,-1.6560310125350952,-5.060221195220946,8.226350784301758
1746610347.9367425,-1.6625604629516602,-5.07343292236328,8.237845420837402
1746610348.0178235,-1.6677378416061401,-5.061886310577392,8.249869346618652
1746610348.1187737,-1.6691999435424805,-5.049278736114501,8.239396095275879
1746610348.2067547,-1.6540228128433228,-5.0706515312194815,8.234636306762695
1746610348.3029404,-1.6588146686553955,-5.050804615020751,8.247203826904297
1746610348.4067125,-1.651257872581482,-5.043604373931884,8.24556827545166
1746610348.4950588,-1.6582133769989014,-5.060234069824218,8.241048812866211
1746610348.599793,-1.670394778251648,-5.045254230499267,8.256293296813965
1746610348.687985,-1.669707179069519,-5.057178020477294,8.242380142211914
1746610348.7831962,-1.6745986938476562,-5.080528259277343,8.224135398864746
1746610348.879742,-1.6605727672576904,-5.048601150512694,8.23362922668457
1746610348.9758885,-1.6580561399459839,-5.0319223403930655,8.241105079650879
1746610349.0721853,-1.6557416915893555,-5.043299674987792,8.246411323547363
1746610349.1675692,-1.6447616815567017,-5.029767036437987,8.254955291748047
1746610349.2652562,-1.6689038276672363,-5.045854091644286,8.248536109924316
1746610349.3617704,-1.637001395225525,-5.020301342010497,8.241654396057129
1746610349.4571793,-1.6647796630859375,-5.077126026153564,8.233830451965332
1746610349.5533655,-1.655821681022644,-5.062513351440429,8.231464385986328
1746610349.655656,-1.6656132936477661,-5.054382324218749,8.228428840637207
1746610349.7449822,-1.656496286392212,-5.055473804473876,8.226975440979004
1746610349.848181,-1.665123462677002,-5.052832603454589,8.23562240600586
1746610349.9369931,-1.6690927743911743,-5.041531085968017,8.242820739746094
1746610350.030985,-1.6578201055526733,-5.04822540283203,8.24937915802002
1746610350.1272933,-1.6629023551940918,-5.0127267837524405,8.252949714660645
1746610350.2226057,-1.6502348184585571,-5.029655933380126,8.247507095336914
1746610350.402446,-1.662506341934204,-5.073894977569579,8.24475383758545
1746610350.4276533,-1.6701936721801758,-5.046617031097411,8.246443748474121
1746610350.517938,-1.665593147277832,-5.03044557571411,8.251014709472656
1746610350.613609,-1.6604905128479004,-5.058758735656737,8.237519264221191
1746610350.705774,-1.6607598066329956,-5.051001071929931,8.233878135681152
1746610350.8028843,-1.6561616659164429,-5.045457839965819,8.229934692382812
1746610350.897115,-1.664660930633545,-5.060473442077636,8.245558738708496
1746610350.9934237,-1.6525954008102417,-5.051058292388915,8.238056182861328
1746610351.0902288,-1.6588470935821533,-5.043996334075927,8.239912986755371
1746610351.183799,-1.660010576248169,-5.059450149536132,8.239327430725098
1746610351.2946508,-1.6465041637420654,-5.042039394378661,8.214938163757324
1746610351.3754241,-1.672777771949768,-5.060839653015136,8.236197471618652
1746610351.474643,-1.6619012355804443,-5.026428699493407,8.244502067565918
1746610351.5707002,-1.6681029796600342,-5.037057399749755,8.255668640136719
1746610351.7088046,-1.6792128086090088,-5.051464080810546,8.252006530761719
1746610351.7669344,-1.64918053150177,-5.023501396179198,8.255491256713867
1746610351.8592184,-1.6571258306503296,-5.055037975311278,8.248502731323242
1746610351.9551947,-1.6608130931854248,-5.026538848876952,8.238382339477539
1746610352.0512254,-1.6548866033554077,-5.047404766082763,8.238907814025879
1746610352.1479518,-1.6511485576629639,-5.048019886016845,8.24034309387207
1746610352.2442236,-1.6534093618392944,-5.041346549987792,8.219869613647461
1746610352.336896,-1.6633516550064087,-5.0384435653686515,8.217791557312012
1746610352.434203,-1.6548913717269897,-5.043715953826903,8.242840766906738
1746610352.530049,-1.6601698398590088,-5.062530040740966,8.253024101257324
1746610352.626135,-1.6557340621948242,-5.009065151214599,8.25114631652832
1746610352.7341223,-1.6737064123153687,-4.99517011642456,8.264606475830078
1746610352.820565,-1.66159188747406,-5.06467056274414,8.255270957946777
1746610352.9139183,-1.6840550899505615,-5.060908794403075,8.251984596252441
1746610353.0120676,-1.6437071561813354,-5.023667812347411,8.246010780334473
1746610353.1099946,-1.6681016683578491,-5.064531803131103,8.23017406463623
1746610353.2054086,-1.6577824354171753,-5.07831859588623,8.249309539794922
1746610353.2995408,-1.6624834537506104,-5.041176319122314,8.245241165161133
1746610353.3951862,-1.6693774461746216,-5.043493747711181,8.238836288452148
1746610353.49095,-1.6596311330795288,-5.058159828186034,8.234764099121094
1746610353.5851138,-1.6603749990463257,-5.0511412620544425,8.257390022277832
1746610353.6843915,-1.6749441623687744,-5.050790786743163,8.233686447143555
1746610353.7779946,-1.6440693140029907,-5.042480468749999,8.228139877319336
1746610353.8737612,-1.6594027280807495,-5.054496765136718,8.229874610900879
1746610353.969847,-1.6581017971038818,-5.070974349975585,8.235295295715332
1746610354.066039,-1.6505178213119507,-5.066608428955077,8.235539436340332
1746610354.165295,-1.6649360656738281,-5.038520336151122,8.230175971984863
1746610354.257715,-1.6694881916046143,-5.05418825149536,8.245482444763184
1746610354.3538616,-1.6752570867538452,-5.040959835052489,8.244006156921387
1746610354.4508202,-1.666601538658142,-5.091818332672118,8.237154960632324
1746610354.546763,-1.6443990468978882,-5.08251667022705,8.238784790039062
1746610354.6466353,-1.6551464796066284,-5.0100317001342765,8.24560832977295
1746610354.7402086,-1.6782588958740234,-5.056597232818603,8.226363182067871
1746610354.835689,-1.6618112325668335,-5.047816276550292,8.212912559509277
1746610354.9320092,-1.6651002168655396,-5.0557589530944815,8.234671592712402
1746610355.027802,-1.6490134000778198,-5.0746679306030265,8.218310356140137
1746610355.1333435,-1.6635849475860596,-5.069277763366698,8.241427421569824
1746610355.2196932,-1.662156343460083,-5.066991329193114,8.223162651062012
1746610355.3160982,-1.6435086727142334,-5.027536869049071,8.24067497253418
1746610355.411988,-1.672899603843689,-5.078015327453612,8.244793891906738
1746610355.5099056,-1.6497344970703125,-5.057126998901366,8.231834411621094
1746610355.6071944,-1.6817482709884644,-5.0729002952575675,8.242802619934082
1746610355.7009668,-1.6691927909851074,-5.062025070190429,8.249890327453613
1746610355.797261,-1.6473463773727417,-5.03053855895996,8.225098609924316
1746610355.8928545,-1.6471452713012695,-5.05912685394287,8.259252548217773
1746610355.988804,-1.6586278676986694,-5.059741973876952,8.244341850280762
1746610356.0893967,-1.6418670415878296,-5.036670684814452,8.241286277770996
1746610356.1808143,-1.6529178619384766,-5.049381256103515,8.230732917785645
1746610356.2769792,-1.659934639930725,-5.04838991165161,8.246676445007324
1746610356.3732045,-1.6591311693191528,-5.044998168945312,8.246065139770508
1746610356.4688222,-1.6663672924041748,-5.053354263305663,8.235769271850586
1746610356.568373,-1.6694015264511108,-5.051889419555663,8.24229907989502
1746610356.660907,-1.66160249710083,-5.050686836242675,8.234525680541992
1746610356.756719,-1.653214454650879,-5.058011054992675,8.231217384338379
1746610356.8526764,-1.668718695640564,-5.077606678009032,8.246869087219238
1746610356.9485345,-1.6632074117660522,-5.0522422790527335,8.228211402893066
1746610357.0489779,-1.6538703441619873,-5.056851387023925,8.253061294555664
1746610357.1415935,-1.6676331758499146,-5.0652756690978995,8.22725772857666
1746610357.2376807,-1.6571102142333984,-5.042318820953368,8.243422508239746
1746610357.3337638,-1.657424807548523,-5.035963058471679,8.238598823547363
1746610357.4297109,-1.669887661933899,-5.048613548278808,8.24045467376709
1746610357.531171,-1.6526126861572266,-5.013271808624267,8.24720573425293
1746610357.6216533,-1.6726831197738647,-5.063229084014892,8.256244659423828
1746610357.7176468,-1.6686835289001465,-5.03151512145996,8.257822036743164
1746610357.8136942,-1.6617038249969482,-5.052106380462646,8.233360290527344
1746610357.9094656,-1.6505041122436523,-5.059783935546874,8.227438926696777
1746610358.0190501,-1.6642738580703735,-5.064541339874267,8.239811897277832
1746610358.1017246,-1.6580075025558472,-5.045699596405028,8.229883193969727
1746610358.1977181,-1.6729761362075806,-5.06175661087036,8.240896224975586
1746610358.2936532,-1.671831488609314,-5.045327186584472,8.244142532348633
1746610358.389533,-1.6602510213851929,-5.050924777984618,8.228431701660156
1746610358.4893181,-1.6714184284210205,-5.065974712371825,8.239546775817871
1746610358.5817645,-1.652772068977356,-5.061933040618896,8.232475280761719
1746610358.6775582,-1.6529921293258667,-5.04599905014038,8.254143714904785
1746610358.7745767,-1.6569766998291016,-5.055119037628173,8.224767684936523
1746610358.870595,-1.6658269166946411,-5.050295829772948,8.23771858215332
1746610358.9699225,-1.6656121015548706,-5.049085140228271,8.244616508483887
1746610359.0625014,-1.6617203950881958,-5.053259849548339,8.240604400634766
1746610359.1599178,-1.6602672338485718,-5.045219421386718,8.24474811553955
1746610359.255512,-1.65970778465271,-5.066023349761962,8.236030578613281
1746610359.351878,-1.6572575569152832,-5.045325756072997,8.238340377807617
1746610359.450955,-1.654949426651001,-5.062342166900634,8.229683876037598
1746610359.5437431,-1.6640733480453491,-5.039397239685058,8.23926067352295
1746610359.6394677,-1.6613649129867554,-5.055370807647704,8.235836029052734
1746610359.735526,-1.6588853597640991,-5.051596164703368,8.238526344299316
1746610359.831595,-1.671959638595581,-5.046739578247069,8.236489295959473
1746610359.937073,-1.6586968898773193,-5.041839122772216,8.24771785736084
1746610360.023419,-1.663897156715393,-5.053788185119628,8.228476524353027
1746610360.1195543,-1.664705514907837,-5.060562133789062,8.248492240905762
1746610360.2155032,-1.6651463508605957,-5.065025806427001,8.226722717285156
1746610360.3135526,-1.6448769569396973,-5.026996135711669,8.246737480163574
1746610360.420902,-1.6699987649917603,-5.069974899291991,8.240851402282715
1746610360.5070474,-1.650390863418579,-5.0488009452819815,8.225699424743652
1746610360.601621,-1.6848779916763306,-5.059584140777587,8.260927200317383
1746610360.6976938,-1.646351933479309,-5.040660381317138,8.233007431030273
1746610360.7935448,-1.6719326972961426,-5.064960002899169,8.228178024291992
1746610360.8898802,-1.6674954891204834,-5.056387424468993,8.2340726852417
1746610360.9855585,-1.6561435461044312,-5.044585227966308,8.224469184875488
1746610361.0815935,-1.6568189859390259,-5.058416843414306,8.229007720947266
1746610361.177492,-1.6566908359527588,-5.077284336090087,8.230506896972656
1746610361.2713645,-1.6519967317581177,-5.046266078948974,8.237190246582031
1746610361.3707287,-1.6651843786239624,-5.056112766265868,8.24697208404541
1746610361.4635987,-1.6643006801605225,-5.047902584075927,8.242313385009766
1746610361.5593503,-1.658804178237915,-5.055893898010253,8.256829261779785
1746610361.6557806,-1.659246563911438,-5.059861183166503,8.233257293701172
1746610361.754533,-1.6596201658248901,-5.0375280380249015,8.23845100402832
1746610361.851071,-1.6582249402999878,-5.057824134826659,8.242737770080566
1746610361.9465156,-1.6640491485595703,-5.046958923339843,8.237954139709473
1746610362.042422,-1.653702974319458,-5.049901008605956,8.234033584594727
1746610362.136527,-1.6546345949172974,-5.024386405944823,8.24816608428955
1746610362.2325075,-1.6648335456848145,-5.046015262603759,8.248577117919922
1746610362.3340545,-1.6599757671356201,-5.0450072288513175,8.244391441345215
1746610362.424314,-1.6660068035125732,-5.048391342163085,8.2527437210083
1746610362.5205135,-1.6331665515899658,-4.9933443069458,8.223322868347168
1746610362.6165888,-1.6743618249893188,-5.045729637145995,8.221301078796387
1746610362.712455,-1.6697310209274292,-5.06891107559204,8.20781135559082
1746610362.8119447,-1.6558328866958618,-5.058891773223876,8.230685234069824
1746610362.9095166,-1.6434071063995361,-5.038348674774169,8.233170509338379
1746610363.0006592,-1.6460702419281006,-5.05592393875122,8.227879524230957
1746610363.0993187,-1.6572321653366089,-5.0571813583374015,8.244759559631348
1746610363.1953356,-1.671707272529602,-5.041186809539794,8.240326881408691
1746610363.2927268,-1.6668967008590698,-5.064550876617431,8.240039825439453
1746610363.3864644,-1.6683143377304077,-5.033516407012939,8.246489524841309
1746610363.4823196,-1.6532204151153564,-5.065991401672362,8.234477043151855
1746610363.5783498,-1.660309076309204,-5.057411670684814,8.241569519042969
1746610363.675345,-1.6682003736495972,-5.05137538909912,8.240384101867676
1746610363.7716713,-1.657616138458252,-5.077687740325927,8.226366996765137
1746610363.8673096,-1.664063572883606,-5.081538677215575,8.250596046447754
1746610363.9636838,-1.6604318618774414,-5.040050029754638,8.2384033203125
1746610364.0593843,-1.6804437637329102,-5.018333435058593,8.25692367553711
1746610364.1552644,-1.658884048461914,-5.031959533691405,8.235712051391602
1746610364.2546618,-1.638694405555725,-5.0453782081603995,8.29206371307373
1746610364.34831,-1.68355393409729,-5.032113552093505,8.241100311279297
1746610364.4447258,-1.5846978425979614,-5.06395387649536,8.197772979736328
1746610364.54053,-1.672851800918579,-5.08983278274536,8.191629409790039
1746610364.636405,-1.5896730422973633,-5.025517940521239,8.213083267211914
1746610364.7326872,-1.651063084602356,-5.0460519790649405,8.199881553649902
1746610364.8283722,-1.641988754272461,-5.049680233001708,8.176093101501465
1746610364.9244506,-1.6517499685287476,-5.0589914321899405,8.267374038696289
1746610365.018255,-1.63953697681427,-5.022921085357665,8.241069793701172
1746610365.114375,-1.674259901046753,-5.076018810272216,8.250535011291504
1746610365.2202475,-1.6640464067459106,-5.0612754821777335,8.233682632446289
1746610365.3070579,-1.658524513244629,-5.018388271331786,8.255745887756348
1746610365.4031427,-1.6859240531921387,-4.990018844604491,8.256033897399902
1746610365.4992359,-1.6533442735671997,-5.021291732788085,8.229619979858398
1746610365.5952857,-1.6494618654251099,-5.0885019302368155,8.222124099731445
1746610365.6947603,-1.650076150894165,-5.087187767028808,8.220305442810059
1746610365.7871711,-1.6653741598129272,-5.052988052368163,8.228797912597656
1746610365.8831298,-1.6597614288330078,-5.032732963562011,8.241775512695312
1746610365.9791045,-1.6625903844833374,-5.046114444732665,8.234796524047852
1746610366.0751798,-1.656973123550415,-5.033525466918944,8.24925708770752
1746610366.1747243,-1.6983792781829834,-5.080119132995605,8.253478050231934
1746610366.2681577,-1.654768466949463,-5.048472881317138,8.229729652404785
1746610366.3644707,-1.6200755834579468,-5.0271592140197745,8.289650917053223
1746610366.4613743,-1.620607614517212,-5.103057861328124,8.220792770385742
1746610366.5571997,-1.6521317958831787,-5.06878900527954,8.249030113220215
1746610366.662435,-1.6442358493804932,-5.014784812927245,8.24709415435791
1746610366.749302,-1.6895259618759155,-5.074045181274413,8.257969856262207
1746610366.8452795,-1.6875216960906982,-5.0582857131958,8.260845184326172
1746610366.941289,-1.6675251722335815,-5.032795906066894,8.295235633850098
1746610367.037193,-1.6327532529830933,-5.073554039001464,8.24350357055664
1746610367.1373987,-1.6370805501937866,-5.075686454772948,8.227396011352539
1746610367.2291105,-1.6592004299163818,-5.052331924438476,8.222161293029785
1746610367.3262303,-1.6945579051971436,-5.079468250274657,8.211882591247559
1746610367.4229782,-1.631880521774292,-5.047860622406005,8.235934257507324
1746610367.5191615,-1.644524335861206,-5.059986114501952,8.284317970275879
1746610367.6226823,-1.6534276008605957,-5.005844116210937,8.258034706115723
1746610367.7130733,-1.6862112283706665,-5.025146961212157,8.241837501525879
1746610367.8070977,-1.6635056734085083,-5.071364879608153,8.240399360656738
1746610367.9031258,-1.6678823232650757,-5.0763912200927725,8.239537239074707
1746610367.9990764,-1.661172866821289,-5.0374083518981925,8.25488567352295
1746610368.0955164,-1.6533652544021606,-5.051185131072997,8.241972923278809
1746610368.1910958,-1.612688422203064,-5.046536922454833,8.242728233337402
1746610368.287105,-1.6564412117004395,-5.019927501678466,8.209680557250977
1746610368.383175,-1.6205109357833862,-5.016304492950439,8.225306510925293
1746610368.4790256,-1.6637918949127197,-5.086378097534179,8.222865104675293
1746610368.5767448,-1.6701765060424805,-5.063302516937255,8.239741325378418
1746610368.6701236,-1.667523980140686,-5.020131111145019,8.238924026489258
1746610368.766058,-1.6590392589569092,-5.059539318084716,8.23441219329834
1746610368.8619676,-1.6319735050201416,-5.06438398361206,8.227941513061523
1746610368.9582427,-1.6922425031661987,-5.045368671417235,8.225496292114258
1746610369.0576305,-1.6813198328018188,-5.028508186340331,8.243526458740234
1746610369.1500351,-1.6436249017715454,-5.060712337493896,8.21764087677002
1746610369.2460234,-1.6631711721420288,-5.071518898010253,8.247961044311523
1746610369.3430731,-1.6622673273086548,-5.01295518875122,8.261173248291016
1746610369.4389358,-1.6619553565979004,-5.030943870544433,8.244422912597656
1746610369.5383759,-1.6532366275787354,-5.0787644386291495,8.25912857055664
1746610369.6309962,-1.658206820487976,-5.039340019226073,8.253681182861328
1746610369.7269516,-1.652456521987915,-4.991827487945556,8.253478050231934
1746610369.824179,-1.661996603012085,-5.068866729736327,8.245369911193848
1746610369.9201198,-1.650722622871399,-5.067053794860839,8.23243236541748
1746610370.026208,-1.6634595394134521,-5.04917812347412,8.228742599487305
1746610370.1122804,-1.6445385217666626,-5.043296337127685,8.2405424118042
1746610370.2104557,-1.653645396232605,-5.0502305030822745,8.246501922607422
1746610370.303988,-1.6637459993362427,-5.041315078735351,8.251788139343262
1746610370.4001024,-1.6703717708587646,-5.049750328063964,8.24936580657959
1746610370.4992304,-1.6510847806930542,-5.028380393981933,8.236068725585938
1746610370.5922983,-1.649628758430481,-5.056066989898681,8.244476318359375
1746610370.6880097,-1.6456538438796997,-5.047661304473876,8.245972633361816
1746610370.7850583,-1.654892921447754,-5.04727554321289,8.232839584350586
1746610370.8812275,-1.663048267364502,-5.049589157104491,8.255256652832031
1746610370.9805713,-1.668703317642212,-5.055309772491454,8.240090370178223
1746610371.0739663,-1.652906894683838,-5.033505916595458,8.265827178955078
1746610371.170086,-1.662305235862732,-5.024215698242187,8.260147094726562
1746610371.266061,-1.6657342910766602,-5.080660820007323,8.265421867370605
1746610371.3619545,-1.6334948539733887,-5.039304256439208,8.195362091064453
1746610371.4585054,-1.668852686882019,-5.079875946044921,8.225208282470703
1746610371.553938,-1.6248623132705688,-5.041971206665038,8.213409423828125
1746610371.6533642,-1.6541446447372437,-5.068260669708251,8.232329368591309
1746610371.7460656,-1.6648039817810059,-5.01746654510498,8.24346923828125
1746610371.8419423,-1.6599225997924805,-5.017536640167235,8.242820739746094
1746610371.938404,-1.6492795944213867,-5.080359935760497,8.244853019714355
1746610372.034359,-1.667295217514038,-5.048755168914794,8.239532470703125
1746610372.1299984,-1.6513111591339111,-5.0346288681030265,8.237056732177734
1746610372.2271326,-1.6552696228027344,-5.056480884552001,8.243195533752441
1746610372.323007,-1.6597601175308228,-5.035324573516845,8.231545448303223
1746610372.4255881,-1.651902675628662,-5.031506538391112,8.243999481201172
1746610372.514952,-1.658884882926941,-5.053081512451171,8.230989456176758
1746610372.611252,-1.668411135673523,-5.074608802795409,8.242663383483887
1746610372.7093494,-1.6539057493209839,-5.039014816284179,8.239255905151367
1746610372.8029041,-1.6559638977050781,-5.053058624267577,8.219735145568848
1746610372.8993106,-1.6555359363555908,-5.066837787628173,8.223322868347168
1746610372.993975,-1.6412544250488281,-5.060874938964843,8.22912883758545
1746610373.0898938,-1.6896839141845703,-5.0919151306152335,8.215798377990723
1746610373.1858432,-1.6491483449935913,-5.037221431732177,8.229216575622559
1746610373.2840946,-1.6721265316009521,-5.053758621215819,8.24742317199707
1746610373.3803022,-1.6630600690841675,-5.0639963150024405,8.232686042785645
1746610373.4750617,-1.6683887243270874,-5.078582286834716,8.245524406433105
1746610373.5709708,-1.6896049976348877,-5.037705421447753,8.24275016784668
1746610373.666869,-1.6571204662322998,-5.062773704528808,8.251738548278809
1746610373.762969,-1.6601022481918335,-5.079149723052978,8.24838638305664
1746610373.8622525,-1.6459288597106934,-5.027472496032714,8.240681648254395
1746610373.9549944,-1.644841194152832,-5.042619228363036,8.22828483581543
1746610374.0520725,-1.567265272140503,-5.077504634857177,8.304422378540039
1746610374.1479914,-1.656633973121643,-5.0571603775024405,8.242511749267578
1746610374.2439866,-1.660713791847229,-5.028043270111083,8.236605644226074
1746610374.3430858,-1.6664410829544067,-5.072199821472167,8.231077194213867
1746610374.4357781,-1.6533650159835815,-5.050250530242919,8.254920959472656
1746610374.5319073,-1.6692837476730347,-5.062297821044921,8.255340576171875
1746610374.6280086,-1.6624504327774048,-5.072107791900634,8.234315872192383
1746610374.7239654,-1.6624326705932617,-5.066483497619628,8.243818283081055
1746610374.8231564,-1.664034366607666,-5.03583526611328,8.254117012023926
1746610374.916036,-1.6638134717941284,-5.039102554321288,8.243021011352539
1746610375.0117383,-1.6588430404663086,-5.064021110534667,8.258589744567871
1746610375.110931,-1.6577235460281372,-5.076439857482909,8.225159645080566
1746610375.2028363,-1.6781572103500366,-5.073915481567382,8.269370079040527
1746610375.302033,-1.695112705230713,-5.045363903045653,8.245646476745605
1746610375.3947937,-1.6651331186294556,-5.060411453247069,8.259499549865723
1746610375.4909112,-1.662596583366394,-5.064855098724364,8.239521980285645
1746610375.5899363,-1.6662601232528687,-5.054269313812255,8.232215881347656
1746610375.6858928,-1.6697933673858643,-5.043822765350341,8.24798583984375
1746610375.7823834,-1.6671769618988037,-5.071355342864989,8.243122100830078
1746610375.8779414,-1.683448314666748,-5.034498691558837,8.191068649291992
1746610375.9738138,-1.6570405960083008,-5.044230461120605,8.229151725769043
1746610376.0699089,-1.6574268341064453,-5.039662361145019,8.256647109985352
1746610376.1659093,-1.669098138809204,-5.061315059661864,8.236983299255371
1746610376.2630117,-1.649107813835144,-5.065364360809325,8.229998588562012
1746610376.3567889,-1.6529881954193115,-5.046597957611083,8.238527297973633
1746610376.4528787,-1.667294979095459,-5.0551671981811515,8.253165245056152
1746610376.5499194,-1.6643816232681274,-5.053876399993896,8.249856948852539
1746610376.6450267,-1.6683579683303833,-5.061514377593993,8.244340896606445
1746610376.7444968,-1.6811091899871826,-5.046783447265624,8.261518478393555
1746610376.8366446,-1.6757677793502808,-5.032927989959716,8.26120662689209
1746610376.9327095,-1.6572270393371582,-5.027330398559569,8.252138137817383
1746610377.0287132,-1.6574333906173706,-5.090887546539306,8.251205444335938
1746610377.124694,-1.6507675647735596,-5.072234630584716,8.23929500579834
1746610377.2304878,-1.6690179109573364,-5.025315284729003,8.236756324768066
1746610377.3171988,-1.5547367334365845,-5.076950073242187,8.22642993927002
1746610377.4127586,-1.5828443765640259,-5.023597717285155,8.193754196166992
1746610377.510726,-1.721250057220459,-5.090192794799804,8.248303413391113
1746610377.604758,-1.6289118528366089,-4.974284648895263,8.216347694396973
1746610377.7050936,-1.7174760103225708,-5.093427181243896,8.264814376831055
1746610377.797657,-1.6404024362564087,-5.008806705474853,8.235479354858398
1746610377.8937345,-1.663163423538208,-5.070037841796874,8.260299682617188
1746610377.9896522,-1.677531361579895,-5.029497146606444,8.262308120727539
1746610378.08679,-1.6004570722579956,-5.034611701965331,8.222972869873047
1746610378.1861107,-1.6225563287734985,-5.061846256256103,8.161298751831055
1746610378.278984,-1.6318223476409912,-5.008219718933105,8.233589172363281
1746610378.3748667,-1.6448330879211426,-5.060412883758544,8.242403984069824
1746610378.4707146,-1.667820692062378,-5.044789791107177,8.256906509399414
1746610378.5677571,-1.6808046102523804,-5.067482471466064,8.26494312286377
1746610378.6708562,-1.6652053594589233,-5.022749423980712,8.253482818603516
1746610378.760191,-1.6590067148208618,-5.058070182800292,8.250570297241211
1746610378.8557265,-1.7223716974258423,-5.055917263031005,8.23067855834961
1746610378.9517534,-1.6558079719543457,-5.021450519561767,8.231507301330566
1746610379.0479443,-1.6717784404754639,-5.069352149963378,8.224711418151855
1746610379.1470082,-1.7283997535705566,-5.034364700317382,8.220396041870117
1746610379.2395868,-1.6352769136428833,-5.0477633476257315,8.206886291503906
1746610379.335896,-1.64641535282135,-5.044152259826659,8.226362228393555
1746610379.4316742,-1.642173409461975,-5.060546874999999,8.22089958190918
1746610379.5288126,-1.6477785110473633,-5.035685539245605,8.213412284851074
1746610379.6319416,-1.6724457740783691,-5.027886390686034,8.233174324035645
1746610379.718525,-1.6495459079742432,-5.039269447326659,8.241719245910645
1746610379.8146248,-1.6667336225509644,-5.066143035888671,8.247302055358887
1746610379.9106927,-1.6523566246032715,-5.087398052215575,8.234125137329102
1746610380.0116782,-1.6328150033950806,-5.058705806732177,8.237353324890137
1746610380.112283,-1.6056742668151855,-5.079305171966552,8.24361801147461
1746610380.2018418,-1.7021551132202148,-4.9722886085510245,8.298314094543457
1746610380.2955046,-1.6956933736801147,-5.075239658355712,8.224345207214355
1746610380.3927515,-1.752567172050476,-4.964385986328124,8.301050186157227
1746610380.4887645,-1.6441818475723267,-5.063562870025634,8.231365203857422
1746610380.5881298,-1.6758078336715698,-5.149426460266112,8.215089797973633
1746610380.6817174,-1.588181734085083,-4.918721199035644,8.20309829711914
1746610380.775498,-1.6643452644348145,-5.030328750610351,8.23849868774414
1746610380.8715358,-1.5914549827575684,-5.038400173187255,8.186772346496582
1746610380.9674792,-1.6038448810577393,-5.102120876312255,8.199175834655762
1746610381.0669394,-1.673919439315796,-5.068574428558349,8.22226619720459
1746610381.1625693,-1.669690489768982,-5.029325485229491,8.252843856811523
1746610381.2556112,-1.6656222343444824,-5.061455726623534,8.247650146484375
1746610381.3546925,-1.609302043914795,-5.177945137023925,8.293134689331055
1746610381.4485776,-1.6985418796539307,-4.976165771484374,8.238273620605469
1746610381.5485513,-1.7122329473495483,-4.931750774383544,8.2518949508667
1746610381.6410618,-1.727429747581482,-5.158655643463134,8.26620864868164
1746610381.736673,-1.6679857969284058,-5.092364311218261,8.242437362670898
1746610381.832649,-1.668479561805725,-5.016473770141601,8.223550796508789
1746610381.9285252,-1.6572800874710083,-5.093302249908446,8.243302345275879
1746610382.0347223,-1.6468329429626465,-5.044617176055907,8.249756813049316
1746610382.1207027,-1.6355849504470825,-5.010891914367675,8.253328323364258
1746610382.216712,-1.6408404111862183,-5.074100971221923,8.214374542236328
1746610382.3157604,-1.6789964437484741,-5.10608148574829,8.244194030761719
1746610382.4116263,-1.5973505973815918,-5.0394015312194815,8.214590072631836
1746610382.5193877,-1.6791372299194336,-5.056684494018554,8.228449821472168
1746610382.6017303,-1.6313745975494385,-5.005284786224364,8.21670913696289
1746610382.6975515,-1.661487340927124,-5.0779075622558585,8.234642028808594
1746610382.7934654,-1.675402283668518,-5.074577808380126,8.247278213500977
1746610382.889512,-1.6856427192687988,-5.02627944946289,8.274499893188477
1746610382.9888456,-1.6563310623168945,-5.06881284713745,8.245987892150879
1746610383.0814462,-1.6721066236495972,-5.065645694732665,8.257513046264648
1746610383.1775813,-1.6306369304656982,-5.016869068145751,8.23293685913086
1746610383.2736118,-1.6762923002243042,-5.077641963958739,8.241415023803711
1746610383.3696613,-1.6345151662826538,-5.032316207885741,8.221451759338379
1746610383.4691753,-1.6579757928848267,-5.087074756622314,8.231400489807129
1746610383.5624683,-1.6542344093322754,-5.05261468887329,8.228572845458984
1746610383.6584282,-1.6573623418807983,-5.046442508697509,8.235586166381836
1746610383.754433,-1.6701700687408447,-5.051104068756103,8.250948905944824
1746610383.850413,-1.66536283493042,-5.064374446868896,8.260019302368164
1746610383.9497364,-1.6656843423843384,-5.05742597579956,8.256769180297852
1746610384.042388,-1.659385085105896,-5.0293550491333,8.253437995910645
1746610384.1385057,-1.6624082326889038,-5.0491600036621085,8.239344596862793
1746610384.2345781,-1.6503973007202148,-5.06587791442871,8.228209495544434
1746610384.3305123,-1.6599715948104858,-5.044611454010009,8.230415344238281
1746610384.432711,-1.6483817100524902,-5.02812099456787,8.231731414794922
1746610384.5225105,-1.6714378595352173,-5.073242664337157,8.240150451660156
1746610384.6221876,-1.6925804615020752,-5.045055389404296,8.232551574707031
1746610384.7149208,-1.6658436059951782,-5.01801586151123,8.241559982299805
1746610384.8114474,-1.6582450866699219,-5.0697994232177725,8.248656272888184
1746610384.9173589,-1.6599178314208984,-5.083745002746581,8.246703147888184
1746610385.0033848,-1.6621431112289429,-5.021682262420653,8.246007919311523
1746610385.100481,-1.6785684823989868,-5.029415607452392,8.248335838317871
1746610385.1964724,-1.6469783782958984,-5.094453334808349,8.232396125793457
1746610385.2926776,-1.6515614986419678,-5.043908119201659,8.238374710083008
1746610385.392,-1.653298020362854,-5.049185276031493,8.228949546813965
1746610385.484413,-1.6548866033554077,-5.09081745147705,8.234341621398926
1746610385.5814714,-1.6591051816940308,-5.071164608001708,8.243242263793945
1746610385.6774783,-1.665573000907898,-5.029542922973632,8.241301536560059
1746610385.7734172,-1.698350191116333,-5.074728488922118,8.265141487121582
1746610385.8727162,-1.6904791593551636,-5.076917648315429,8.263976097106934
1746610385.9663613,-1.529815435409546,-5.088279247283935,8.169000625610352
1746610386.060053,-1.6070197820663452,-5.080765724182128,8.2288236618042
1746610386.1585245,-1.6992958784103394,-4.92198896408081,8.240570068359375
1746610386.254507,-1.6458361148834229,-5.074473857879638,8.222668647766113
1746610386.3508518,-1.6787631511688232,-5.087327480316161,8.24396800994873
1746610386.4464636,-1.6597063541412354,-5.006328582763671,8.231369972229004
1746610386.5424538,-1.6953741312026978,-5.079014778137206,8.22199821472168
1746610386.636438,-1.6286735534667969,-5.032474517822265,8.231681823730469
1746610386.732305,-1.6606155633926392,-5.0392675399780265,8.224080085754395
1746610386.838402,-1.641958236694336,-5.06714630126953,8.216582298278809
1746610386.927776,-1.6595938205718994,-5.11372947692871,8.197709083557129
1746610387.0204964,-1.6865037679672241,-5.063757896423339,8.239151954650879
1746610387.1194296,-1.6471983194351196,-5.026695251464843,8.22084903717041
1746610387.2153149,-1.6653895378112793,-5.09750747680664,8.28383731842041
1746610387.318678,-1.618589997291565,-5.030375003814696,8.271754264831543
1746610387.4096618,-1.6802544593811035,-5.040392875671386,8.208662986755371
1746610387.50328,-1.6291440725326538,-5.040516853332519,8.222783088684082
1746610387.5974987,-1.6638522148132324,-5.063836097717284,8.222331047058105
1746610387.6947465,-1.6499762535095215,-5.057543277740478,8.215723037719727
1746610387.7916324,-1.6590962409973145,-5.054789066314696,8.247092247009277
1746610387.8872838,-1.6703916788101196,-5.068950176239013,8.241575241088867
1746610387.983606,-1.6616848707199097,-5.051959514617919,8.253509521484375
1746610388.0804188,-1.66212797164917,-5.044760227203368,8.246386528015137
1746610388.1763716,-1.6592744588851929,-5.0486154556274405,8.246109962463379
1746610388.274268,-1.658321738243103,-5.075067996978759,8.250816345214844
1746610388.3685746,-1.6813229322433472,-5.038236618041991,8.236166000366211
1746610388.4645498,-1.6695635318756104,-5.012714862823485,8.244026184082031
1746610388.5605528,-1.6715712547302246,-5.089108943939208,8.232385635375977
1746610388.6565123,-1.6693811416625977,-5.024301052093505,8.26580810546875
1746610388.753661,-1.652153491973877,-5.030288696289062,8.237261772155762
1746610388.8470855,-1.6084778308868408,-5.047700405120849,8.27698802947998
1746610388.944356,-1.6633316278457642,-5.049825191497802,8.265140533447266
1746610389.04048,-1.6466048955917358,-5.0084567070007315,8.247736930847168
1746610389.13651,-1.6613620519638062,-5.015480995178222,8.237040519714355
1746610389.2330964,-1.655575156211853,-5.072029590606689,8.237042427062988
1746610389.3284054,-1.6401052474975586,-5.0572519302368155,8.245708465576172
1746610389.4252982,-1.6742717027664185,-5.018771171569823,8.22372817993164
1746610389.5214615,-1.6855148077011108,-5.0632615089416495,8.233625411987305
1746610389.617537,-1.6641476154327393,-5.065131664276122,8.22787094116211
1746610389.7199273,-1.664340853691101,-5.048681735992431,8.245891571044922
1746610389.8094368,-1.64456307888031,-5.068067550659179,8.227680206298828
1746610389.9112272,-1.6747385263442993,-5.097429752349853,8.23167610168457
1746610390.001301,-1.663316249847412,-4.9960689544677725,8.213044166564941
1746610390.0953088,-1.6841686964035034,-5.083430290222167,8.244950294494629
1746610390.1947756,-1.6728178262710571,-5.090933322906493,8.208683967590332
1746610390.287152,-1.605429768562317,-5.029742717742919,8.218953132629395
1746610390.3863366,-1.6743052005767822,-5.076518535614013,8.315150260925293
1746610390.479298,-1.6584014892578125,-5.067477226257323,8.276104927062988
1746610390.576169,-1.6520586013793945,-5.017448902130126,8.253807067871094
1746610390.6773186,-1.6512088775634766,-5.059934139251708,8.245920181274414
1746610390.7682323,-1.6343568563461304,-5.052208423614501,8.224150657653809
1746610390.8643014,-1.6847498416900635,-5.061290264129638,8.244105339050293
1746610390.9601815,-1.6819745302200317,-5.082017421722411,8.235413551330566
1746610391.0562382,-1.6649566888809204,-5.059058666229247,8.241100311279297
1746610391.1557515,-1.647742748260498,-5.041533470153808,8.232453346252441
1746610391.2492628,-1.62252676486969,-5.057393550872802,8.250039100646973
1746610391.3451018,-1.6825671195983887,-5.029984951019286,8.240779876708984
1746610391.4412136,-1.6394318342208862,-5.010843276977538,8.231110572814941
1746610391.5372107,-1.649937391281128,-5.097754955291747,8.234294891357422
1746610391.6366324,-1.651167631149292,-5.0763864517211905,8.236861228942871
1746610391.730271,-1.696616530418396,-5.023266315460204,8.282491683959961
1746610391.8270395,-1.6828967332839966,-5.000258922576903,8.265056610107422
1746610391.9223359,-1.6357495784759521,-5.112207889556884,8.240887641906738
1746610392.0181592,-1.6951121091842651,-5.09528350830078,8.237333297729492
1746610392.124308,-1.5913450717926025,-4.955828189849853,8.178092956542969
1746610392.2107046,-1.6680806875228882,-5.1146764755249015,8.258928298950195
1746610392.312029,-1.629083275794983,-5.087578773498534,8.20864200592041
1746610392.4024582,-1.666020393371582,-5.024517536163329,8.264976501464844
1746610392.4983184,-1.662420392036438,-5.052716732025146,8.241850852966309
1746610392.5976298,-1.662489652633667,-5.064269542694091,8.243904113769531
1746610392.6912065,-1.6648757457733154,-5.049423217773437,8.234233856201172
1746610392.787534,-1.6552231311798096,-5.023869514465331,8.240933418273926
1746610392.8842614,-1.655972957611084,-5.064086914062499,8.242576599121094
1746610392.9791815,-1.656652808189392,-5.093245983123778,8.235981941223145
1746610393.0788627,-1.656936764717102,-5.035047054290771,8.238906860351562
1746610393.1712189,-1.6547297239303589,-5.01444911956787,8.223258972167969
1746610393.267054,-1.6575376987457275,-5.0922250747680655,8.231447219848633
1746610393.3630023,-1.6425634622573853,-5.048359394073485,8.231559753417969
1746610393.4590688,-1.6826082468032837,-5.025120258331298,8.244454383850098
1746610393.5584667,-1.6203733682632446,-5.010568141937255,8.252488136291504
1746610393.652235,-1.659695029258728,-5.060874938964843,8.257827758789062
1746610393.7461884,-1.6636275053024292,-5.047387123107909,8.242934226989746
1746610393.845142,-1.6790164709091187,-5.04651927947998,8.255577087402344
1746610393.9390194,-1.6428159475326538,-5.054016590118407,8.23122787475586
1746610394.0384963,-1.6607547998428345,-5.071849822998046,8.244832038879395
1746610394.1311102,-1.649354100227356,-5.0449533462524405,8.254204750061035
1746610394.227018,-1.6651300191879272,-5.035019397735595,8.250874519348145
1746610394.323016,-1.6353014707565308,-5.036953926086425,8.255531311035156
1746610394.4201794,-1.668468713760376,-5.042096138000487,8.258589744567871
1746610394.52618,-1.6598783731460571,-5.036313533782958,8.262724876403809
1746610394.614078,-1.6400890350341797,-5.028518199920653,8.234274864196777
1746610394.7129266,-1.6535837650299072,-5.090320587158202,8.220335960388184
1746610394.8041883,-1.6555471420288086,-5.0353612899780265,8.2418851852417
1746610394.9002035,-1.6482137441635132,-5.04676866531372,8.240946769714355
1746610394.999418,-1.6699328422546387,-5.066368103027343,8.241412162780762
1746610395.092074,-1.6542812585830688,-5.035706996917724,8.232096672058105
1746610395.188083,-1.6456921100616455,-5.053814411163329,8.231598854064941
1746610395.2840235,-1.712597370147705,-5.0455965995788565,8.227948188781738
1746610395.3810866,-1.64793860912323,-5.0813231468200675,8.233048439025879
1746610395.4783764,-1.648226261138916,-5.032665729522704,8.227436065673828
1746610395.5741696,-1.6523603200912476,-5.046015262603759,8.228567123413086
1746610395.6707947,-1.6523066759109497,-5.05943202972412,8.22546672821045
1746610395.7662787,-1.657753825187683,-5.066299438476562,8.245441436767578
1746610395.8620791,-1.6611052751541138,-5.056159019470214,8.243928909301758
1746610395.9585242,-1.6643295288085938,-5.039404392242431,8.243531227111816
1746610396.0542817,-1.6657164096832275,-5.06304121017456,8.243637084960938
1746610396.1500566,-1.6909425258636475,-5.0360469818115225,8.243959426879883
1746610396.2443237,-1.6604111194610596,-5.057256221771239,8.217148780822754
1746610396.343057,-1.6696243286132812,-5.069995403289794,8.26939582824707
1746610396.4396548,-1.6524738073349,-5.033555030822753,8.237679481506348
1746610396.5353253,-1.651480793952942,-5.044214725494384,8.235672950744629
1746610396.6291392,-1.6453754901885986,-5.042385578155517,8.22619342803955
1746610396.724915,-1.6658707857131958,-5.0406737327575675,8.212958335876465
1746610396.8219259,-1.669517993927002,-5.075277805328368,8.259779930114746
1746610396.9268017,-1.6438896656036377,-5.005091190338134,8.219542503356934
1746610397.0130773,-1.6709884405136108,-5.056088924407958,8.25804328918457
1746610397.1127822,-1.6651297807693481,-5.02192735671997,8.25859260559082
1746610397.208212,-1.644464135169983,-5.030381202697753,8.238969802856445
1746610397.302021,-1.6650116443634033,-5.061222553253173,8.250114440917969
1746610397.402592,-1.6841951608657837,-5.049543857574462,8.214900970458984
1746610397.495957,-1.6684454679489136,-5.042472839355468,8.21062183380127
1746610397.5922673,-1.6353251934051514,-5.12779951095581,8.267112731933594
1746610397.6879616,-1.660885214805603,-5.048962116241454,8.258584022521973
1746610397.7821636,-1.6543374061584473,-4.990517139434814,8.247247695922852
1746610397.8820863,-1.656665325164795,-5.072185993194579,8.254725456237793
1746610397.9741986,-1.6765333414077759,-5.048226833343505,8.246112823486328
1746610398.0699759,-1.664422631263733,-5.021495342254638,8.246336936950684
1746610398.1668885,-1.6762574911117554,-5.080334663391112,8.251006126403809
1746610398.2629259,-1.6736900806427002,-5.050414562225341,8.250540733337402
1746610398.362213,-1.6571176052093506,-5.056979179382323,8.269338607788086
1746610398.455143,-1.6820579767227173,-5.07199478149414,8.26376724243164
1746610398.55225,-1.6683577299118042,-5.029879093170165,8.260878562927246
1746610398.654069,-1.650114893913269,-5.042253494262694,8.236515998840332
1746610398.744759,-1.6674058437347412,-5.044806957244872,8.24370288848877
1746610398.8529353,-1.6932350397109985,-5.039165973663329,8.251381874084473
1746610398.9363317,-1.6912426948547363,-5.057908535003661,8.222384452819824
1746610399.0320058,-1.6414119005203247,-5.07811689376831,8.233065605163574
1746610399.1279635,-1.6634280681610107,-5.060484886169433,8.239259719848633
1746610399.223919,-1.6545284986495972,-5.023979187011718,8.244462013244629
1746610399.332599,-1.65360689163208,-5.038040161132812,8.25863265991211
1746610399.4159625,-1.6529834270477295,-5.0712218284606925,8.247525215148926
1746610399.5148442,-1.6630573272705078,-5.073376655578612,8.247586250305176
1746610399.6100993,-1.6486767530441284,-5.006734371185302,8.238677024841309
1746610399.7078013,-1.687322735786438,-5.031270503997802,8.252327919006348
1746610399.8048444,-1.6564569473266602,-5.081238269805907,8.23050594329834
1746610399.8971713,-1.6577529907226562,-5.075274467468261,8.2258882522583
1746610399.993917,-1.6637572050094604,-5.019772052764892,8.24504566192627
1746610400.089953,-1.6462033987045288,-5.035008907318114,8.266324043273926
1746610400.184874,-1.678031325340271,-5.061382770538329,8.243271827697754
1746610400.2844656,-1.6474488973617554,-5.046231746673583,8.231942176818848
1746610400.3768446,-1.6530752182006836,-5.070698261260985,8.242513656616211
1746610400.4729302,-1.6547551155090332,-5.0324740409851065,8.252273559570312
1746610400.5688689,-1.665129542350769,-5.049446582794189,8.245598793029785
1746610400.666307,-1.6638219356536865,-5.054313659667968,8.251365661621094
1746610400.7655313,-1.6659519672393799,-5.029407501220702,8.276372909545898
1746610400.8589501,-1.6458450555801392,-5.115783691406249,8.246177673339844
1746610400.9550092,-1.692948579788208,-5.097976684570312,8.235878944396973
1746610401.051086,-1.6578471660614014,-5.004155635833739,8.253753662109375
1746610401.1468353,-1.6632691621780396,-5.05950117111206,8.266068458557129
1746610401.2441294,-1.6377382278442383,-5.076060771942138,8.234489440917969
1746610401.3368886,-1.657110333442688,-5.056859016418456,8.240233421325684
1746610401.432981,-1.664229154586792,-5.02894639968872,8.24429988861084
1746610401.5288801,-1.6428710222244263,-5.068746089935302,8.22002124786377
1746610401.625825,-1.6509839296340942,-5.068524837493896,8.242461204528809
1746610401.7315834,-1.662245512008667,-5.037003993988036,8.236822128295898
1746610401.8180234,-1.6597871780395508,-5.028951168060302,8.246169090270996
1746610401.9138854,-1.601295828819275,-5.062150001525878,8.197305679321289
1746610402.0131927,-1.6114609241485596,-5.024097442626952,8.215418815612793
1746610402.1096215,-1.6434284448623657,-5.027195453643798,8.24502182006836
1746610402.2060733,-1.6763805150985718,-5.133182525634765,8.258735656738281
1746610402.2987816,-1.6961477994918823,-5.03601837158203,8.251667976379395
1746610402.395014,-1.699503779411316,-5.02778148651123,8.258665084838867
1746610402.4919662,-1.6851060390472412,-5.13744831085205,8.232874870300293
1746610402.5886908,-1.6439059972763062,-5.146183013916015,8.206172943115234
1746610402.6844366,-1.6406993865966797,-5.05597972869873,8.212544441223145
1746610402.780128,-1.650258183479309,-4.999516963958739,8.221596717834473
1746610402.876585,-1.6536259651184082,-5.0372371673583975,8.248156547546387
1746610402.9722116,-1.645552158355713,-5.066085815429687,8.23540210723877
1746610403.0677927,-1.6898572444915771,-5.031841278076171,8.270774841308594
1746610403.1651244,-1.662168264389038,-5.031121253967284,8.248210906982422
1746610403.260841,-1.573472261428833,-5.045391082763671,8.26217269897461
1746610403.3583293,-1.657640814781189,-5.071557044982909,8.256086349487305
1746610403.4530368,-1.6211934089660645,-4.980382442474364,8.214868545532227
1746610403.5468163,-1.6668529510498047,-5.08169937133789,8.239474296569824
1746610403.6467907,-1.6363929510116577,-5.100913524627685,8.212247848510742
1746610403.7387836,-1.6728260517120361,-5.058280944824218,8.229119300842285
1746610403.8347871,-1.6905715465545654,-5.039015769958495,8.253777503967285
1746610403.9309566,-1.6579205989837646,-5.029629230499267,8.25616455078125
1746610404.029938,-1.684313416481018,-5.092580318450927,8.257665634155273
1746610404.1366653,-1.6681991815567017,-5.00549030303955,8.208410263061523
1746610404.2199368,-1.6303150653839111,-5.03494644165039,8.2455415725708
1746610404.3166852,-1.6443933248519897,-5.074636936187743,8.227457046508789
1746610404.41356,-1.6517812013626099,-5.065519332885741,8.226800918579102
1746610404.5097115,-1.678910732269287,-5.04271364212036,8.237594604492188
1746610404.6074297,-1.6435489654541016,-5.012316703796386,8.20927619934082
1746610404.6997437,-1.6379072666168213,-5.039692401885985,8.235815048217773
1746610404.795681,-1.6360762119293213,-5.033954143524169,8.239912986755371
1746610404.8919437,-1.6223866939544678,-5.111598014831542,8.204221725463867
1746610404.987614,-1.7464247941970825,-5.003310203552245,8.311540603637695
1746610405.0869935,-1.7171932458877563,-4.980368137359618,8.281330108642578
1746610405.1827245,-1.741715908050537,-5.04149293899536,8.26973819732666
1746610405.2763722,-1.7284035682678223,-5.086125850677489,8.202646255493164
1746610405.3754826,-1.6696518659591675,-5.1306414604187,8.23633098602295
1746610405.4707744,-1.6974315643310547,-5.121098041534423,8.22860050201416
1746610405.5671532,-1.6845101118087769,-5.011704921722411,8.268839836120605
1746610405.6609445,-1.6838111877441406,-5.08461046218872,8.284137725830078
1746610405.7578049,-1.613890528678894,-5.093834877014159,8.234672546386719
1746610405.8538368,-1.6465482711791992,-4.9827890396118155,8.220637321472168
1746610405.9497328,-1.6360896825790405,-5.039787769317626,8.22171401977539
1746610406.0490901,-1.6591014862060547,-5.12803554534912,8.233687400817871
1746610406.1416824,-1.66718590259552,-5.028648376464843,8.23412036895752
1746610406.239016,-1.6827263832092285,-5.016626834869384,8.250606536865234
1746610406.3349047,-1.7001478672027588,-5.233128070831298,8.331893920898438
1746610406.4319265,-1.7059682607650757,-5.04082441329956,8.277959823608398
1746610406.534388,-1.6475063562393188,-4.95629072189331,8.262557983398438
1746610406.6240065,-1.6694999933242798,-5.1486849784851065,8.22242546081543
1746610406.7196467,-1.6781001091003418,-5.087998390197753,8.209981918334961
1746610406.8157663,-1.6658579111099243,-4.993615150451659,8.228507041931152
1746610406.918099,-1.653368353843689,-5.0855112075805655,8.249680519104004
1746610407.01488,-1.6488462686538696,-5.08628225326538,8.219079971313477
1746610407.103578,-1.652647852897644,-5.076784133911132,8.29948902130127
1746610407.1977787,-1.6753721237182617,-5.010708332061767,8.222138404846191
1746610407.2937188,-1.6583232879638672,-5.047272205352782,8.24889087677002
1746610407.3898253,-1.6501177549362183,-5.062376022338866,8.234825134277344
1746610407.4890761,-1.6731526851654053,-5.042849540710448,8.261136054992676
1746610407.585521,-1.6582647562026978,-5.060980319976806,8.229393005371094
1746610407.680766,-1.6689327955245972,-5.071908473968505,8.255928993225098
1746610407.7769222,-1.6729629039764404,-5.068460941314696,8.288825988769531
1746610407.8733363,-1.6936602592468262,-5.020559787750243,8.24190902709961
1746610407.9694965,-1.6493409872055054,-5.097760200500487,8.192046165466309
1746610408.064649,-1.6436039209365845,-5.064085006713866,8.213769912719727
1746610408.160939,-1.6466217041015625,-4.990064144134521,8.237581253051758
1746610408.2544487,-1.6725497245788574,-5.065663337707519,8.256516456604004
1746610408.350713,-1.6489886045455933,-5.05074119567871,8.25058364868164
1746610408.4513733,-1.673874020576477,-5.0309057235717765,8.270206451416016
1746610408.5437455,-1.6565197706222534,-5.031634807586669,8.242804527282715
1746610408.6402767,-1.6540669202804565,-5.074005603790282,8.243417739868164
1746610408.7356117,-1.6692583560943604,-5.0466976165771475,8.242382049560547
1746610408.831722,-1.646431803703308,-5.028861999511718,8.232518196105957
1746610408.9330246,-1.6554352045059204,-5.0707969665527335,8.226136207580566
1746610409.0235445,-1.6602855920791626,-5.050531387329101,8.243425369262695
1746610409.1194592,-1.6699557304382324,-5.053469657897948,8.244982719421387
1746610409.2155635,-1.6498017311096191,-5.048841476440429,8.230067253112793
1746610409.3128998,-1.662528395652771,-5.0770530700683585,8.227442741394043
1746610409.41876,-1.6631041765213013,-5.051936149597167,8.260098457336426
1746610409.5073187,-1.6603813171386719,-5.00993251800537,8.253199577331543
1746610409.6006496,-1.6710498332977295,-5.056638717651366,8.2567777633667
1746610409.6969903,-1.6526433229446411,-5.054339408874511,8.238184928894043
1746610409.792609,-1.7105693817138672,-5.089302539825439,8.249807357788086
1746610409.8919733,-1.7132997512817383,-5.07269525527954,8.236960411071777
1746610409.984692,-1.6657403707504272,-5.014335632324218,8.23690128326416
1746610410.0806258,-1.63970148563385,-5.047369480133056,8.24045181274414
1746610410.177619,-1.6675035953521729,-5.0952391624450675,8.243786811828613
1746610410.2735534,-1.6510226726531982,-5.056244373321532,8.24963092803955
1746610410.3731802,-1.7596248388290405,-5.002981662750243,8.187145233154297
1746610410.4656887,-1.6440922021865845,-4.97758388519287,8.193744659423828
1746610410.561663,-1.6321923732757568,-5.186672687530517,8.268333435058594
1746610410.6574643,-1.609683632850647,-5.06339406967163,8.177811622619629
1746610410.753669,-1.7344013452529907,-4.9645442962646475,8.271437644958496
1746610410.8528898,-1.6694499254226685,-5.033259868621825,8.239856719970703
1746610410.9454918,-1.6801098585128784,-5.10444164276123,8.276524543762207
