timestamp,ax,ay,az
1746551209.8100634,-0.1149815022945404,-6.999072551727294,6.86611032485962
1746551210.069095,-0.1149815022945404,-6.999072551727294,6.86611032485962
1746551210.741373,-0.1149815022945404,-6.999072551727294,6.86611032485962
1746551211.3802009,-0.1149815022945404,-6.999072551727294,6.86611032485962
1746551211.6952105,-0.12878106534481049,-7.008079051971435,6.822895050048829
1746551212.388628,-0.11537361890077591,-7.010547637939452,6.852941036224366
1746551212.9686027,-0.12517830729484558,-7.01927614212036,6.854860305786134
1746551214.4921575,-0.11043485999107361,-7.0218186378478995,6.8607544898986825
1746551214.7973716,-0.10483045876026154,-7.0002193450927725,6.834266185760499
1746551215.762162,-0.1006433367729187,-7.012920379638671,6.842990398406983
1746551216.140031,-0.10819505900144577,-7.017380237579345,6.85982370376587
1746551216.4605343,-0.10819505900144577,-7.017380237579345,6.85982370376587
1746551217.070957,-0.10819505900144577,-7.017380237579345,6.85982370376587
1746551217.2378166,-0.10819505900144577,-7.017380237579345,6.85982370376587
1746551217.2512386,-0.105172298848629,-7.049981117248534,6.877812385559083
1746551217.2681324,-0.1078341007232666,-7.040885925292968,6.8510708808898935
1746551217.2987094,-0.1136021614074707,-7.018111705780028,6.856674194335938
1746551217.3149114,-0.11055700480937958,-7.022638320922851,6.857136726379395
1746551217.3326929,-0.11583109200000763,-7.002212524414062,6.861892700195313
1746551217.3472779,-0.1116757020354271,-7.060419559478759,6.916670799255372
1746551217.367948,-0.1091080978512764,-6.987803936004638,6.842533588409425
1746551217.3834867,-0.11303815245628357,-6.989807605743407,6.852129936218263
1746551217.4003327,-0.11357638984918594,-6.968228340148925,6.852403640747071
1746551217.4195933,-0.11142164468765259,-6.967463493347167,6.827809810638429
1746551217.4408634,-0.0892370417714119,-6.958572387695312,6.810441493988038
1746551217.456045,-0.10898543894290924,-7.039867877960204,6.844260692596436
1746551217.473978,-0.11247130483388901,-7.009061813354491,6.841020107269288
1746551217.4937785,-0.1032695397734642,-7.005239486694335,6.848307609558106
1746551217.509764,-0.10663700103759766,-6.9973716735839835,6.851218223571778
1746551217.5422678,-0.11367050558328629,-6.960335731506347,6.8537893295288095
1746551217.5604305,0.5493896007537842,-6.52627944946289,7.117281436920167
1746551217.587195,-0.10375119000673294,-7.001624107360839,6.830415725708009
1746551217.614192,-0.1280403584241867,-6.985407829284667,6.8628296852111825
1746551217.6339154,-0.1267038881778717,-7.005034923553466,6.846176147460938
1746551217.6643388,-0.10574620962142944,-7.01074457168579,6.838337898254395
1746551217.6872387,-0.09912223368883133,-6.971122741699218,6.856265544891358
1746551217.7059731,-0.13883867859840393,-7.021799087524413,6.842724323272706
1746551217.7254555,-0.14079703390598297,-7.044351577758788,6.848126888275147
1746551217.7454429,-0.11897256225347519,-6.988251209259032,6.849755287170411
1746551217.7672749,-0.1258079707622528,-7.028796672821044,6.839617252349854
1746551217.7961648,-0.1326475739479065,-7.011559009552001,6.8609037399292
1746551217.8211875,-0.1356908082962036,-7.030869960784911,6.846919059753419
1746551217.8434973,-0.1204831600189209,-7.030629158020019,6.85075855255127
1746551217.8666396,-0.12568733096122742,-7.015973091125487,6.86064910888672
1746551217.8869674,-0.12054435163736343,-6.998379707336425,6.843338012695313
1746551217.9070096,-0.1181265264749527,-6.986729621887206,6.871137142181397
1746551217.9294205,-0.1057451069355011,-6.971996784210204,6.856755256652833
1746551217.948175,-0.12835213541984558,-6.996628284454345,6.855296134948731
1746551217.9663548,-0.1682087481021881,-6.959405899047851,6.82483196258545
1746551217.988994,-0.0987064316868782,-6.971978187561034,6.836916446685792
1746551218.0082543,-0.12473872303962708,-6.999279499053954,6.8517775535583505
1746551218.0217066,-0.13598240911960602,-6.985528945922851,6.88078260421753
1746551218.0348775,-0.1310635209083557,-6.990454673767089,6.871857166290284
1746551218.047797,-0.12439864873886108,-6.988441944122314,6.864066123962403
1746551218.062025,-0.1110926941037178,-6.994812488555907,6.848193645477296
1746551218.076086,-0.09681227058172226,-7.068065643310546,6.951987743377686
1746551218.0887954,-0.09700675308704376,-7.000661849975585,6.868120670318604
1746551218.1021183,-0.09331034123897552,-6.9910521507263175,6.850825786590577
1746551218.1171236,-0.12511417269706726,-7.016843795776366,6.828197956085206
1746551218.130977,-0.12918776273727417,-6.998279094696044,6.8516602516174325
1746551218.145848,-0.1367216408252716,-6.996523857116698,6.850860118865968
1746551218.169711,-0.16043385863304138,-7.001007080078124,6.88678789138794
1746551218.2563748,-0.10872211307287216,-6.98442792892456,6.856942653656007
1746551218.356923,-0.12621542811393738,-6.993881225585937,6.858459949493409
1746551218.4671247,-0.10164570063352585,-6.992619037628173,6.853476524353028
1746551218.544769,-0.10946479439735413,-7.000342845916747,6.828071117401124
1746551218.6914315,-0.11675296723842621,-7.005192279815673,6.84544324874878
1746551218.7370932,-0.11707531660795212,-7.042765617370605,6.843657970428468
1746551218.8338108,-0.1204269602894783,-6.990365028381347,6.854577541351319
1746551218.9524117,-0.13263992965221405,-7.0191097259521475,6.8699731826782235
1746551219.0295491,-0.12946240603923798,-7.0139989852905265,6.845971107482911
1746551219.1520433,-0.13929544389247894,-7.003593444824218,6.848795413970948
1746551219.227848,-0.11562720686197281,-7.029609203338622,6.856721878051759
1746551219.3136356,-0.11510317027568817,-7.019016742706298,6.859414577484132
1746551219.4324648,-0.09148508310317993,-7.016052722930907,6.849510192871095
1746551219.5177917,-0.13895447552204132,-7.014841556549071,6.837132930755616
1746551219.64706,-0.12594246864318848,-7.003315925598144,6.847137451171876
1746551219.6975996,-0.12879033386707306,-7.009599208831786,6.865560531616212
1746551219.8148055,-0.11220518499612808,-7.0192599296569815,6.8814406394958505
1746551219.9153357,-0.11524323374032974,-6.992332935333251,6.850631713867188
1746551220.0020807,-0.14212840795516968,-7.0000262260437,6.836733341217042
1746551220.1206791,-0.09590350836515427,-6.953443527221679,6.818101882934571
1746551220.1829097,-0.13672807812690735,-7.0152316093444815,6.840698242187501
1746551220.2930667,-0.13289335370063782,-6.997464656829833,6.86274290084839
1746551220.4014134,-0.10685679316520691,-6.990824699401855,6.861376762390138
1746551220.4676604,-0.12216697633266449,-7.000630378723144,6.851231575012208
1746551220.5944097,-0.10382627695798874,-7.000704288482665,6.856038570404054
1746551220.6671786,-0.12505227327346802,-7.011981010437011,6.8467750549316415
1746551220.7558851,-0.11372708529233932,-6.997020244598388,6.860046863555909
1746551220.8736835,-0.11902569979429245,-7.0085153579711905,6.862555980682374
1746551220.9476016,-0.12248940020799637,-6.994008064270019,6.849459648132325
1746551221.0704486,-0.11858303844928741,-6.99878168106079,6.866903305053712
1746551221.1408648,-0.129630908370018,-6.99016237258911,6.848691940307618
1746551221.2439463,-0.12356794625520706,-6.964924812316894,6.8425931930542
1746551221.342532,-0.09806136041879654,-6.956043243408202,6.8475918769836435
1746551221.4290755,-0.11374911665916443,-6.944025993347167,6.856937885284425
1746551221.553857,-0.12076710909605026,-6.945273876190185,6.859240531921388
1746551221.6425025,-0.12580417096614838,-6.97213315963745,6.853303909301759
1746551221.7167842,-0.12141843140125275,-6.96911334991455,6.850944995880128
1746551221.8351324,-0.1213865652680397,-6.966286659240722,6.853570461273194
1746551221.9180222,-0.1115143820643425,-6.976127624511718,6.855269432067872
1746551222.0378134,-0.12413099408149719,-6.9921860694885245,6.84858274459839
1746551222.1182,-0.12645608186721802,-6.986108779907226,6.828233242034913
1746551222.1997511,-0.1217629462480545,-7.0035057067871085,6.851228713989259
1746551222.3140833,-0.12442634999752045,-6.9977097511291495,6.866223335266114
1746551222.3954623,-0.1305026262998581,-7.011260509490966,6.852069377899171
1746551222.50854,-0.12501676380634308,-7.008662700653075,6.856156826019288
1746551222.5854409,-0.12732075154781342,-7.011539459228515,6.857168197631837
1746551222.6781206,-0.1201360747218132,-7.009636402130126,6.846797943115235
1746551222.8013978,-0.12971876561641693,-7.014563083648681,6.847698688507081
1746551222.873693,-0.13572284579277039,-7.012069702148437,6.840200424194337
1746551222.9925756,-0.11572279036045074,-7.028118610382079,6.863105773925782
1746551223.0700545,-0.1034700870513916,-7.022419452667235,6.842286109924317
1746551223.1572092,-0.1258312314748764,-7.009142398834228,6.848123073577882
1746551223.2657754,-0.12393248826265335,-7.026558399200439,6.848417758941651
1746551223.3484557,-0.1386333554983139,-7.020770549774169,6.842052936553956
1746551223.4599764,-0.10916102677583694,-7.014921188354491,6.859243869781495
1746551223.5403976,-0.10259682685136795,-7.036451339721679,6.8521814346313485
1746551223.6390758,-0.10687287151813507,-7.031080245971679,6.839338779449464
1746551223.7411458,-0.11914854496717453,-7.019512653350829,6.84016513824463
1746551223.8287117,-0.1353210210800171,-7.027926445007323,6.841214656829835
1746551223.9391224,-0.1228625476360321,-7.021654605865478,6.852289676666261
1746551224.0222075,-0.10439646244049072,-7.063929080963134,6.902646064758302
1746551224.118752,-0.1317594051361084,-7.0149240493774405,6.853179931640626
1746551224.2206645,-0.10090172290802002,-7.038918495178222,6.8351783752441415
1746551224.3106725,-0.12479501217603683,-7.0277390480041495,6.84696912765503
1746551224.4268982,-0.11106768995523453,-7.01641035079956,6.846316814422608
1746551224.5022795,-0.11608895659446716,-7.027676105499267,6.871160030364991
1746551224.5987906,-0.12168228626251221,-6.99587059020996,6.835683345794679
1746551224.703745,-0.13022899627685547,-7.016676902770995,6.852168083190919
1746551224.7905316,-0.13062313199043274,-7.020860195159911,6.855125904083253
1746551224.9046466,-0.11611798405647278,-7.019392013549804,6.869425773620606
1746551224.9836063,-0.11451652646064758,-7.020547866821288,6.844341278076173
1746551225.0800993,-0.12360028922557831,-7.025826930999755,6.847524642944337
1746551225.1893234,-0.11633098125457764,-7.020195484161376,6.84599781036377
1746551225.2692583,-0.13190171122550964,-7.018268585205077,6.843987464904786
1746551225.3826997,-0.11690749228000641,-7.014719009399413,6.8598270416259775
1746551225.4624248,-0.11827598512172699,-7.017334461212157,6.85257911682129
1746551225.5592208,-0.10873068124055862,-7.018074989318847,6.853917121887208
1746551225.6639822,-0.11023920774459839,-7.034702777862548,6.859333992004395
1746551225.7511322,-0.1418725997209549,-7.03067398071289,6.839804649353028
1746551225.85577,-0.09912940114736557,-7.022419929504394,6.84239959716797
1746551225.9425561,-0.12631794810295105,-7.017230987548827,6.836235523223878
1746551226.0397174,-0.11003866791725159,-7.017446041107177,6.8505945205688485
1746551226.1453447,-0.1083807498216629,-7.019134998321532,6.847188472747804
1746551226.2326598,-0.11162889003753662,-6.984522342681884,6.855713844299317
1746551226.3438442,-0.11145231127738953,-7.007479667663573,6.858526229858399
1746551226.4249012,-0.13319627940654755,-7.0210227966308585,6.861189365386964
1746551226.5209024,-0.11236537992954254,-7.0364646911621085,6.86783790588379
1746551226.6252804,-0.10076577216386795,-7.009005546569823,6.840233325958253
1746551226.7127163,-0.1275097131729126,-7.021909236907958,6.837181568145753
1746551226.8233042,-0.14507459104061127,-7.014497756958007,6.8489017486572275
1746551226.9052463,-0.1351349651813507,-7.0156822204589835,6.8547635078430185
1746551227.0102398,-0.11231907457113266,-7.0062570571899405,6.859285831451417
1746551227.1066518,-0.09636607021093369,-7.016589164733886,6.852617263793946
1746551227.1932797,-0.10663687437772751,-7.021830081939696,6.838356018066407
1746551227.3118026,-0.13238424062728882,-7.022118091583251,6.841086864471436
1746551227.3871405,-0.13097625970840454,-7.028802871704101,6.852754592895509
1746551227.4840975,-0.12324307858943939,-7.025097846984862,6.825909614562989
1746551227.593396,-0.09890703111886978,-6.991206645965575,6.869429588317872
1746551227.6755774,-0.11648737639188766,-6.967488288879394,6.855972766876222
1746551227.7799888,-0.1214466243982315,-6.9590511322021475,6.836414337158204
1746551227.8669736,-0.07705466449260712,-7.078496456146239,6.962480545043946
1746551227.9641523,-0.08306969702243805,-7.039158344268798,6.890825748443604
1746551228.0678492,-0.10488203912973404,-7.0076889991760245,6.829214096069337
1746551228.1555135,-0.12067710608243942,-7.042294025421142,6.831505775451661
1746551228.266733,-0.10139785706996918,-7.001282215118407,6.844466209411622
1746551228.3474288,-0.13011875748634338,-7.019989490509032,6.863219738006593
1746551228.4443233,-0.1784035712480545,-7.067888736724853,6.895490646362306
1746551228.547022,-0.11817567050457001,-7.0291967391967765,6.888171672821046
1746551228.6365013,-0.13300031423568726,-7.0112566947937,6.8663039207458505
1746551228.7414713,-0.09514809399843216,-7.015903949737548,6.8530006408691415
1746551228.8284988,-0.09160686284303665,-7.015419006347655,6.837426185607911
1746551228.9247308,-0.13237179815769196,-7.027093887329101,6.850863933563233
1746551229.0273821,-0.12071150541305542,-7.02153730392456,6.837078094482423
1746551229.1182625,-0.10749059170484543,-7.019120216369628,6.854283332824708
1746551229.232325,-0.11948547512292862,-7.013659000396728,6.866272449493409
1746551229.3081725,-0.1064944937825203,-7.023274421691894,6.847600460052491
1746551229.405242,-0.11204385757446289,-6.999520301818847,6.859157085418702
1746551229.510243,-0.12629543244838715,-7.017129898071288,6.86498260498047
1746551229.5970616,-0.11480126529932022,-7.015762329101562,6.861888885498048
1746551229.7098334,-0.10862955451011658,-6.995135307312011,6.846247673034669
1746551229.7883625,-0.11228763312101364,-7.039138793945312,6.818189144134522
1746551229.8849487,-0.10881045460700989,-7.012475013732909,6.851243019104005
1746551229.995157,-0.11363377422094345,-7.017171382904052,6.85581398010254
1746551230.079604,-0.11828155070543289,-7.033398628234862,6.859908103942872
1746551230.197541,-0.13078485429286957,-7.022347450256347,6.851209640502931
1746551230.2699857,-0.13101619482040405,-7.021914482116698,6.854884147644044
1746551230.3658762,-0.11835974454879761,-7.026607036590575,6.855340480804444
1746551230.472199,-0.12488371878862381,-7.015936374664306,6.846888065338136
1746551230.5599606,-0.12163365632295609,-7.025139808654784,6.8451905250549325
1746551230.6768038,-0.11713895201683044,-7.019932746887206,6.840398788452149
1746551230.7512715,-0.11879784613847733,-7.027092933654784,6.853119850158692
1746551230.8480473,-0.1258629560470581,-7.0291123390197745,6.84575653076172
1746551230.9510715,-0.11791899800300598,-7.034616470336913,6.85232162475586
1746551231.0420697,-0.12407977133989334,-7.026598453521728,6.855727195739747
1746551231.1519878,-0.11549752950668335,-7.026141643524169,6.850237846374513
1746551231.2341523,-0.1216728463768959,-7.022900581359862,6.851920127868653
1746551231.3299804,-0.10836450010538101,-7.024498939514159,6.8465590476989755
1746551231.4305494,-0.11140584945678711,-7.0260653495788565,6.854321479797364
1746551231.5205007,-0.11508715152740479,-7.037830352783202,6.847242355346681
1746551231.6362853,-0.1146354079246521,-7.020610809326171,6.850840091705323
1746551231.712494,-0.1142050102353096,-7.019605159759521,6.8493900299072275
1746551231.8097537,-0.11881142854690552,-7.034967422485351,6.858740806579591
1746551231.9135711,-0.11676760762929916,-7.029618740081786,6.843157291412354
1746551232.001803,-0.11462564021348953,-7.016991615295409,6.8457093238830575
1746551232.1189866,-0.10527364909648895,-7.0233774185180655,6.846884727478028
1746551232.1933997,-0.11904294043779373,-7.028769016265868,6.8528738021850595
1746551232.2914772,-0.11188093572854996,-7.025385856628417,6.853320121765138
1746551232.4005635,-0.11660772562026978,-7.02274465560913,6.854642868041993
1746551232.4832797,-0.108209528028965,-7.0175485610961905,6.842773437500001
1746551232.5934312,-0.11857998371124268,-7.024004936218261,6.850182533264161
1746551232.674361,-0.10624190419912338,-7.025921344757079,6.853894710540772
1746551232.7703903,-0.11342215538024902,-7.027035236358642,6.856255531311036
1746551232.8759227,-0.1197350025177002,-7.036078929901122,6.849460124969483
1746551232.9679236,-0.12402838468551636,-7.013589859008788,6.856138229370118
1746551233.0733683,-0.10630004853010178,-7.01716136932373,6.850355625152589
1746551233.155181,-0.12415200471878052,-7.006321430206298,6.853729724884034
1746551233.2516072,-0.11383572220802307,-7.0224642753601065,6.854975223541261
1746551233.3555596,-0.1244267076253891,-7.009788990020751,6.850595474243165
1746551233.4436846,-0.11461418867111206,-7.016620635986327,6.813087463378907
1746551233.5488396,-0.10642427206039429,-7.004401683807372,6.838909149169923
1746551233.6357143,-0.08475304394960403,-6.984936237335204,6.83666753768921
1746551233.7322206,-0.1185239776968956,-7.034378051757812,6.85398817062378
1746551233.8371847,-0.10150254517793655,-7.000205993652343,6.851433753967286
1746551233.923756,-0.12981295585632324,-7.019639492034911,6.8596181869506845
1746551234.0445845,-0.12383616715669632,-7.002649307250976,6.842403411865235
1746551234.1157255,-0.12550170719623566,-7.000871181488036,6.8380799293518075
1746551234.2130344,-0.10354473441839218,-7.03605556488037,6.8592519760131845
1746551234.3171825,-0.12424575537443161,-7.027202129364013,6.8603253364563
1746551234.403865,-0.11888646334409714,-6.995956897735595,6.862886905670167
1746551234.517316,-0.12543407082557678,-7.015986919403075,6.849348068237306
1746551234.596576,-0.07821352779865265,-6.971784114837646,6.868302822113038
1746551234.6944373,-0.12346825003623962,-7.001047134399413,6.853652954101563
1746551234.7956958,-0.11985821276903152,-7.048573493957519,6.85139560699463
1746551234.8864112,-0.11479771137237549,-7.028213500976562,6.8572144508361825
1746551235.0002825,-0.12495394051074982,-6.920448303222655,6.783456802368165
1746551235.07679,-0.12284273654222488,-7.038812637329101,6.835165023803712
1746551235.1736987,-0.09528718143701553,-7.0273118019103995,6.850754261016847
1746551235.2780585,-0.12425464391708374,-7.013895511627196,6.849881649017335
1746551235.3644807,-0.11189571768045425,-7.028829097747802,6.838732242584229
1746551235.4700463,-0.11679241806268692,-7.030840873718261,6.854694366455079
1746551235.5563118,-0.11553973704576492,-7.016870975494384,6.844676971435548
1746551235.653334,-0.12355063855648041,-7.028928279876708,6.84960699081421
1746551235.7579417,-0.10298975557088852,-7.008793354034423,6.844989299774171
1746551235.8474364,-0.12294534593820572,-7.031206130981444,6.859209060668946
1746551235.9562428,-0.12052922695875168,-7.022939682006835,6.853690624237061
1746551236.0403326,-0.11531098932027817,-7.0171446800231925,6.85979461669922
1746551236.1372664,-0.12376167625188828,-7.018241882324218,6.850507736206056
1746551236.2389364,-0.11961887031793594,-7.001140117645263,6.840509891510011
1746551236.325917,-0.1276404708623886,-7.012275218963622,6.849318504333497
1746551236.4395518,-0.10700726509094238,-7.018761634826659,6.859924793243409
1746551236.5193837,-0.12051466107368469,-7.021856784820556,6.848027229309083
1746551236.6151304,-0.12030278146266937,-7.013380527496337,6.83907175064087
1746551236.7205102,-0.11759081482887268,-7.027677536010741,6.858434677124024
1746551236.8073957,-0.1163947731256485,-7.018542289733886,6.849711894989015
1746551236.9286935,-0.12051458656787872,-7.015532493591308,6.847768783569337
1746551237.0005755,-0.11578339338302612,-7.020793437957763,6.850389480590821
1746551237.0976877,-0.11994343250989914,-7.020256042480468,6.852498054504395
1746551237.2060442,-0.11691080778837204,-7.028804302215575,6.854143619537354
1746551237.2871406,-0.1212250366806984,-7.018105030059814,6.855245590209962
1746551237.3981838,-0.12345636636018753,-7.0125412940978995,6.842469215393067
1746551237.483099,-0.12141700834035873,-7.011268138885497,6.858206748962403
1746551237.5778275,-0.12098000198602676,-7.010486125946044,6.857051849365235
1746551237.6817179,-0.12147852033376694,-7.0249667167663565,6.862418651580811
1746551237.7673972,-0.11931326985359192,-7.019152641296386,6.845498561859132
1746551237.8795867,-0.12401944398880005,-7.015024185180663,6.8497352600097665
1746551237.9593573,-0.12025735527276993,-7.0140037536621085,6.850564479827882
1746551238.059435,-0.11455889791250229,-7.0072946548461905,6.851229190826417
1746551238.1621919,-0.11681202799081802,-7.012218475341796,6.846178531646729
1746551238.251499,-0.12113325297832489,-7.025395393371581,6.849170684814454
1746551238.3526292,-0.12196044623851776,-7.024667739868163,6.845862388610841
1746551238.4433126,-0.1258113831281662,-7.02142572402954,6.856699466705323
1746551238.5392118,-0.11363660544157028,-7.011964797973632,6.848039627075196
1746551238.64871,-0.11153988540172577,-7.020249843597411,6.847448348999024
1746551238.730789,-0.12203388661146164,-7.009138107299804,6.862112045288087
1746551238.8450572,-0.11622904986143112,-7.016100883483886,6.839460372924806
1746551238.9220753,-0.12041475623846054,-7.026013851165771,6.846174716949464
1746551239.0183148,-0.12411697953939438,-7.0134568214416495,6.855443000793458
1746551239.1239824,-0.1133342981338501,-7.01012372970581,6.85547971725464
1746551239.210987,-0.12045794725418091,-7.0151400566101065,6.851976394653321
1746551239.3248591,-0.12653085589408875,-7.008325576782226,6.848999977111817
1746551239.4044812,-0.11345933377742767,-7.009253501892089,6.845564365386964
1746551239.5001738,-0.11759252846240997,-7.0130224227905265,6.843005180358888
1746551239.6082027,-0.1227651834487915,-7.014238834381103,6.847661972045899
1746551239.6907973,-0.11908870190382004,-7.003326892852782,6.849481105804444
1746551239.8012164,-0.11613203585147858,-7.014235019683837,6.855510234832765
1746551239.8860443,-0.12486270815134048,-7.0033016204833975,6.853715896606446
1746551239.9787197,-0.10810405761003494,-7.004283905029296,6.847819805145265
1746551240.0846136,-0.13292187452316284,-7.007583618164062,6.847030639648438
1746551240.1711686,-0.11343909800052643,-7.007723808288573,6.845553398132325
1746551240.27602,-0.12003584206104279,-7.003723621368407,6.853110790252686
1746551240.384905,-0.1264200210571289,-7.020823955535888,6.8614821434021005
1746551240.4602807,-0.11409986019134521,-7.0096654891967765,6.854827404022218
1746551240.5648394,-0.11488955467939377,-7.0221285820007315,6.855556011199952
1746551240.6515691,-0.1126900315284729,-7.010907649993896,6.864300251007081
1746551240.7643125,-0.12782984972000122,-7.005012989044189,6.837764739990235
1746551240.8442876,-0.1067773699760437,-7.0276141166687,6.846417903900147
1746551240.9439614,-0.13393589854240417,-7.005203247070312,6.813347339630128
1746551241.0442474,-0.1305626779794693,-7.025959968566894,6.783312320709229
1746551241.1341476,-0.12208883464336395,-7.01258087158203,6.846394538879395
1746551241.2440572,-0.11044778674840927,-6.998876094818114,6.846814632415772
1746551241.3269167,-0.1173643171787262,-6.987557888031005,6.869328975677491
1746551241.422181,-0.12091594189405441,-7.025349617004394,6.85402536392212
1746551241.5241184,-0.12766925990581512,-6.997617244720458,6.854020595550538
1746551241.614696,-0.13194207847118378,-7.006831645965575,6.84685230255127
1746551241.7312493,-0.13189491629600525,-7.007050037384032,6.868243694305421
1746551241.807681,-0.11729658395051956,-6.997661113739013,6.859766960144044
1746551241.9013083,-0.1147846132516861,-7.009447097778319,6.8588929176330575
1746551242.00831,-0.10003228485584259,-7.010523796081542,6.860171794891358
1746551242.0931625,-0.11330068856477737,-7.001060962677001,6.84637212753296
1746551242.211273,-0.12161504477262497,-7.006758213043212,6.848686695098878
1746551242.2880447,-0.11318210512399673,-7.005690574645995,6.846478939056397
1746551242.3862581,-0.12161065638065338,-7.008250713348388,6.864185333251954
1746551242.48677,-0.11565859615802765,-7.006281852722167,6.853088378906251
1746551242.573645,-0.12612409889698029,-7.0045480728149405,6.840893268585206
1746551242.688477,-0.11424235999584198,-7.004433631896972,6.8514699935913095
1746551242.7763321,-0.1166255921125412,-7.019226551055907,6.8382277488708505
1746551242.8625972,-0.12910030782222748,-7.042202949523925,6.874916553497315
1746551242.9667845,-0.09557066857814789,-7.002632617950439,6.857660770416261
1746551243.0545287,-0.11092305928468704,-7.002875804901122,6.8523035049438485
1746551243.1597848,-0.12004753202199936,-7.018243789672851,6.863963127136231
1746551243.247499,-0.12419239431619644,-7.0004258155822745,6.860039234161378
1746551243.3437264,-0.12381730228662491,-7.023879051208495,6.853517532348634
1746551243.4490883,-0.10878694802522659,-7.0292649269103995,6.8300843238830575
1746551243.5358555,-0.10042361170053482,-6.9999351501464835,6.829947471618653
1746551243.671452,-0.157774418592453,-6.995346546173095,6.86933183670044
1746551243.7293668,-0.09966330975294113,-7.001264095306396,6.854960918426515
1746551243.8253112,-0.12271103262901306,-6.988391399383544,6.8596277236938485
1746551243.927031,-0.12400282919406891,-7.008442878723144,6.86169195175171
1746551244.0169334,-0.11235463619232178,-7.00831127166748,6.845502853393556
1746551244.1276464,-0.13153694570064545,-6.9982895851135245,6.855165481567384
1746551244.2086666,-0.10253659635782242,-7.0835323333740225,6.871344566345216
1746551244.3045845,-0.10300438106060028,-6.999152660369872,6.873413562774659
1746551244.4104695,-0.14452649652957916,-6.9586400985717765,6.842735767364503
1746551244.4971404,-0.11893067508935928,-7.048101902008056,6.866015434265138
1746551244.6144853,-0.1324034184217453,-7.040117263793944,6.873414039611817
1746551244.6887927,-0.08455465734004974,-7.051127433776855,6.837383270263673
1746551244.785322,-0.09766046702861786,-7.019814014434814,6.850582122802735
1746551244.8971336,-0.14443309605121613,-7.014533519744872,6.86560869216919
1746551244.978265,-0.13016919791698456,-7.03376293182373,6.925060272216798
1746551245.0839615,-0.11091265082359314,-7.038507461547851,6.8550381660461435
1746551245.1696942,-0.12787304818630219,-6.971301078796386,6.865489959716798
1746551245.2649257,-0.1277538388967514,-7.004255294799804,6.832602500915528
1746551245.3706956,-0.11445361375808716,-7.011112689971923,6.817233562469483
1746551245.4592795,-0.12237648665904999,-7.030426502227782,6.824140071868897
1746551245.5771492,-0.10157625377178192,-6.999310493469237,6.838909149169923
1746551245.6508405,-0.11803712695837021,-7.00007152557373,6.849755287170411
1746551245.7479432,-0.10063710808753967,-7.007933616638183,6.856487274169923
1746551245.8493702,-0.12761439383029938,-7.006393432617187,6.86656951904297
1746551245.9393368,-0.123299740254879,-7.012654304504394,6.844563484191895
1746551246.0481966,-0.13453340530395508,-7.027389049530028,6.83404302597046
1746551246.131119,-0.13108696043491364,-7.011901855468749,6.846572399139405
1746551246.2283204,-0.103648342192173,-7.005469322204589,6.842080593109132
1746551246.3300207,-0.11308841407299042,-7.01258087158203,6.860113143920899
1746551246.4193883,-0.11089673638343811,-7.018630981445312,6.834914684295655
1746551246.5376043,-0.1214253380894661,-7.015327930450439,6.863486289978028
1746551246.612183,-0.1212022602558136,-7.0266051292419425,6.833989143371583
1746551246.7086372,-0.11955934017896652,-7.001123428344726,6.8322792053222665
1746551246.820686,-0.13205692172050476,-7.0061702728271475,6.858714103698731
1746551246.905097,-0.11568319797515869,-7.050598144531249,6.912248611450196
1746551247.0098429,-0.1098070740699768,-7.024254798889159,6.885122776031495
1746551247.091171,-0.14753006398677826,-7.009982109069823,6.894968509674073
1746551247.1894622,-0.11223306506872177,-7.010767936706542,6.831599712371827
1746551247.299593,-0.13027554750442505,-7.005045890808105,6.832758426666261
1746551247.379684,-0.09381883591413498,-6.984503746032714,6.811999797821046
1746551247.4912174,-0.0766037181019783,-6.980415821075439,6.853736400604249
1746551247.5717278,-0.09157069027423859,-6.9968786239624015,6.822960853576661
1746551247.6781168,-0.19092229008674622,-6.969924926757812,6.875102519989015
1746551247.7740858,-0.10232451558113098,-7.020412921905517,6.86963176727295
1746551247.859379,-0.16253022849559784,-7.053813457489013,6.862235069274903
1746551247.9651384,-0.06064651161432266,-6.991800785064696,6.7702579498291025
1746551248.0545025,-0.12059834599494934,-6.980061531066894,6.889207839965821
1746551248.1482034,-0.09182927012443542,-7.024027347564696,6.839368820190431
1746551248.253109,-0.12247483432292938,-7.013194561004638,6.838253021240235
1746551248.3408992,-0.10056047141551971,-7.011336803436278,6.850224018096925
1746551248.4531512,-0.10973792523145676,-7.004559040069579,6.866679668426515
1746551248.5337715,-0.10012123733758926,-7.0090880393981925,6.859474658966065
1746551248.632274,-0.12193109095096588,-7.004889011383056,6.869739055633546
1746551248.734844,-0.11272842437028885,-7.009657859802245,6.845095157623292
1746551248.8218317,-0.13458529114723206,-7.015648365020751,6.850032806396485
1746551248.9392016,-0.1125153973698616,-7.0067968368530265,6.8397560119628915
1746551249.0138764,-0.12205503135919571,-6.994857311248778,6.874835014343263
1746551249.1101563,-0.10539036244153976,-6.999185562133788,6.8323659896850595
1746551249.2154202,-0.12769630551338196,-7.00715160369873,6.873949527740479
1746551249.3013916,-0.08747375011444092,-6.999183177947997,6.834472656250001
1746551249.425438,-0.13035710155963898,-7.029919624328612,6.8754849433898935
1746551249.4969878,-0.10620182752609253,-7.017619132995605,6.848626613616944
1746551249.5918565,-0.1216340959072113,-6.99121332168579,6.884979248046876
1746551249.7025838,-0.14126846194267273,-7.001310348510741,6.834291934967042
1746551249.78208,-0.11293454468250275,-6.992675781249999,6.84887981414795
1746551249.8891273,-0.12642008066177368,-7.004107952117919,6.862370967864991
1746551249.975911,-0.09957543015480042,-6.9958152770996085,6.844964504241944
1746551250.0732305,-0.09712549299001694,-6.995191097259521,6.848012447357179
1746551250.1812022,-0.12880617380142212,-6.99391746520996,6.842387676239015
1746551250.2639227,-0.11495305597782135,-7.011105060577392,6.852527141571046
1746551250.376442,-0.10805671662092209,-6.998900890350341,6.855573654174806
1746551250.4566033,-0.11013714224100113,-6.995372295379638,6.84679937362671
1746551250.5525415,-0.11335296928882599,-7.015514373779296,6.85644817352295
1746551250.6586018,-0.11667224019765854,-7.000121593475341,6.83924436569214
1746551250.7439923,-0.11770536005496979,-7.004582881927489,6.859650135040284
1746551250.853843,-0.12041047215461731,-7.000032424926757,6.850059032440186
1746551250.9360998,-0.12828320264816284,-6.992356777191161,6.857765197753907
1746551251.0326996,-0.12610603868961334,-6.998400211334228,6.846953868865968
1746551251.1359534,-0.1140577644109726,-7.003713130950927,6.863901138305665
1746551251.2254095,-0.11524958163499832,-7.0092196464538565,6.85343360900879
1746551251.340973,-0.1171761155128479,-7.00927448272705,6.862951278686524
1746551251.4152005,-0.1169738844037056,-7.013562679290771,6.839823722839356
1746551251.5128992,-0.11173617094755173,-7.013920307159423,6.851978302001954
1746551251.6161687,-0.10383287072181702,-7.011134147644042,6.85503387451172
1746551251.7081654,-0.12947580218315125,-7.019533157348632,6.858080863952638
1746551251.81683,-0.10728412121534348,-7.01368236541748,6.847179889678956
1746551251.901657,-0.10332053899765015,-7.009904384613036,6.85090732574463
1746551252.0000243,-0.11501564085483551,-7.014779090881347,6.864679813385011
1746551252.1024106,-0.10922213643789291,-7.002060413360595,6.855791091918946
1746551252.188266,-0.11584244668483734,-6.997176647186278,6.853549003601075
1746551252.3187394,-0.12284282594919205,-7.012341022491454,6.85081958770752
1746551252.3879793,-0.1294689029455185,-7.026498317718505,6.855572700500489
1746551252.4813282,-0.121048204600811,-7.0016770362853995,6.850942134857179
1746551252.5776439,-0.10196566581726074,-7.008374691009521,6.846313476562501
1746551252.6684396,-0.10601939260959625,-7.0104355812072745,6.856414794921876
1746551252.7722833,-0.09692857414484024,-7.011795997619628,6.84578561782837
1746551252.8561683,-0.12688446044921875,-7.013494014739989,6.844363689422608
1746551252.9536862,-0.1344282478094101,-7.032358646392821,6.849125385284425
1746551253.0572343,-0.15222090482711792,-6.99529218673706,6.88817310333252
1746551253.1484175,-0.12185405194759369,-6.986884117126464,6.85282325744629
1746551253.2553341,-0.1477571576833725,-6.988083362579345,6.856330394744874
1746551253.3579462,-0.09198734909296036,-7.0199031829833975,6.825441837310792
1746551253.4343255,-0.10353768616914749,-7.012566566467284,6.8349027633667
1746551253.5399842,-0.1034574806690216,-7.022323131561278,6.817373752593995
1746551253.6270046,-0.09373383224010468,-6.995625495910644,6.873295783996583
1746551253.7377875,-0.10564914345741272,-7.004735469818114,6.855545520782472
1746551253.8195698,-0.15082818269729614,-7.013499736785888,6.863135814666749
1746551253.914731,-0.13487756252288818,-7.0372042655944815,6.8303565979003915
1746551254.024911,-0.13996471464633942,-7.038049697875976,6.868598937988282
1746551254.106722,-0.11702057719230652,-7.014929294586181,6.883837699890138
1746551254.2236905,-0.09426575154066086,-6.995792865753173,6.864866256713868
1746551254.3011174,-0.12745845317840576,-6.989696025848388,6.798174858093263
1746551254.3971999,-0.15737639367580414,-6.972014427185058,6.832717418670655
1746551254.5098655,-0.12977297604084015,-7.012573242187499,6.839775562286378
1746551254.5917957,-0.11763052642345428,-7.005186080932616,6.92082166671753
1746551254.7005014,-0.09772772341966629,-7.006317615509032,6.833531856536866
1746551254.782246,-0.11515902727842331,-7.016374588012694,6.857312679290772
1746551254.8758888,-0.10657727718353271,-7.03161334991455,6.84610939025879
1746551254.9820087,-0.12578383088111877,-7.013318061828612,6.861903667449952
1746551255.0744324,-0.12354037165641785,-7.025336265563964,6.848639965057374
1746551255.1787996,-0.11425556987524033,-7.000218391418456,6.862718582153321
1746551255.26226,-0.10342545807361603,-7.0104637145996085,6.856873035430909
1746551255.3561337,-0.1250980645418167,-6.970820903778075,6.852732181549073
1746551255.4619184,-0.10892879962921143,-6.966669082641601,6.8240675926208505
1746551255.5483584,-0.11277133226394653,-6.982512950897216,6.838846683502198
1746551255.6566684,-0.09438177943229675,-7.01740550994873,6.848097324371339
1746551255.7404778,-0.11373215913772583,-7.024825572967528,6.853264808654786
1746551255.837623,-0.11532669514417648,-7.016736984252929,6.855212211608888
1746551255.9424174,-0.11894889920949936,-7.031252861022948,6.856474399566651
1746551256.0297587,-0.1057221069931984,-7.009974002838134,6.8482403755188
1746551256.1502347,-0.1315309703350067,-7.008640766143798,6.860993385314942
1746551256.2216048,-0.12344872951507568,-7.02220058441162,6.850110530853272
1746551256.3162377,-0.11933895945549011,-7.007735729217528,6.862925052642823
1746551256.4215674,-0.10609052330255508,-7.017313957214355,6.842178344726563
1746551256.510853,-0.11857474595308304,-7.011481285095214,6.855579853057862
1746551256.6196103,-0.11891239136457443,-7.025062561035155,6.839802742004395
1746551256.703068,-0.13984961807727814,-7.004708290100097,6.8657865524292
1746551256.797661,-0.11225391924381256,-7.014105796813964,6.8475685119628915
1746551256.9080768,-0.12359920889139175,-7.023937225341796,6.86402177810669
1746551256.9946234,-0.1078527569770813,-7.01396083831787,6.855210781097413
1746551257.1077516,-0.12229110300540924,-7.000984668731689,6.8564724922180185
1746551257.1822927,-0.12589217722415924,-6.9369797706603995,6.804365634918214
1746551257.2893617,-0.10051335394382477,-7.088207244873046,6.909507751464845
1746551257.384505,-0.07833448797464371,-6.991087913513183,6.898611545562745
1746551257.4702563,-0.12198082357645035,-7.010115146636962,6.890882015228272
1746551257.5759356,-0.12624353170394897,-7.036615371704101,6.834234237670899
1746551257.6630514,-0.12602749466896057,-7.018400192260741,6.880986690521241
1746551257.7603755,-0.09533713757991791,-6.995961189270019,6.822574138641358
1746551257.8638194,-0.11821534484624863,-6.957550525665282,6.901626586914063
1746551257.9509914,-0.11743602901697159,-7.024032592773437,6.850321292877198
1746551258.061972,-0.15469275414943695,-7.019089221954345,6.890303611755372
1746551258.1444254,-0.07605274021625519,-6.9516611099243155,6.855115890502931
1746551258.2423775,-0.08216039091348648,-6.892918586730956,6.8513832092285165
1746551258.3428366,-0.11946774274110794,-7.023003578186034,6.863769054412843
1746551258.4311192,-0.1381688117980957,-6.990946292877196,6.822300910949708
1746551258.5413885,-0.11184137314558029,-6.976237297058105,6.835510253906251
1746551258.6253712,-0.11303488910198212,-6.970613002777099,6.864441394805909
1746551258.7195776,-0.12105244398117065,-6.993484497070312,6.869853019714356
1746551258.8324018,-0.10869116336107254,-6.964960575103759,6.843770027160645
1746551258.9138134,-0.11381065100431442,-7.0294761657714835,6.8626489639282235
1746551259.027253,-0.10732322931289673,-7.025492191314696,6.895029067993165
1746551259.1058688,-0.13906140625476837,-7.042897701263427,6.895488739013673
1746551259.2027674,-0.12455425411462784,-6.99093198776245,6.864964962005616
1746551259.3136146,-0.1474517285823822,-7.037335872650146,6.88350534439087
1746551259.393984,-0.11603299528360367,-6.998518466949462,6.8478641510009775
1746551259.5064352,-0.10232068598270416,-7.0588974952697745,6.845991611480714
1746551259.5874615,-0.1325286477804184,-6.9977049827575675,6.866243362426759
1746551259.690928,-0.14536675810813904,-7.009846210479735,6.862235069274903
1746551259.7888908,-0.10699180513620377,-6.9956040382385245,6.871652603149415
1746551259.8757696,-0.14554566144943237,-7.016347408294677,6.8572735786438
1746551259.9822447,-0.1160992681980133,-6.993222713470458,6.834695339202882
1746551260.0664988,-0.12385006248950958,-6.991460323333739,6.866961479187013
1746551260.1618721,-0.15579071640968323,-6.985519886016845,6.818136215209962
1746551260.2711403,-0.10853095352649689,-6.9845309257507315,6.822681427001954
1746551260.3523095,-0.1335228681564331,-7.059329986572265,6.887244224548341
1746551260.4573972,-0.12023996561765671,-6.9758214950561515,6.885759830474854
1746551260.5446925,-0.10821026563644409,-6.980486869812011,6.8852577209472665
1746551260.641121,-0.11525901407003403,-6.934621334075927,6.829655647277833
1746551260.7459173,-0.12832918763160706,-7.026187896728515,6.848640441894532
1746551260.8321517,-0.12600012123584747,-6.998851299285888,6.8251380920410165
1746551260.949891,-0.11018170416355133,-7.028578281402587,6.866015434265138
1746551261.0272725,-0.11648506671190262,-7.01063585281372,6.851919651031495
1746551261.123635,-0.11627916246652603,-6.968512535095214,6.883666992187501
1746551261.2255864,-0.09955761581659317,-7.0345983505249015,6.835922241210938
1746551261.3153088,-0.09073205292224884,-6.971326828002929,6.804988384246827
1746551261.42305,-0.11295050382614136,-7.036452293395995,6.849607944488526
1746551261.5107718,-0.11941608041524887,-7.033636569976806,6.849426746368409
1746551261.6043432,-0.10893041640520096,-6.992940425872802,6.853600502014161
1746551261.7166033,-0.11363504827022552,-7.030303955078124,6.848517894744874
1746551261.7943723,-0.12917369604110718,-7.032047748565673,6.863312721252442
1746551261.9142308,-0.1251397430896759,-7.014914989471435,6.88249683380127
1746551261.9892724,-0.1019333079457283,-7.022378921508788,6.873470306396485
1746551262.0845907,-0.1186850368976593,-6.996218681335448,6.85534954071045
1746551262.1890028,-0.12248499691486359,-7.023026466369628,6.851424217224122
1746551262.2744062,-0.10051524639129639,-7.017580986022948,6.837555408477784
1746551262.3894246,-0.11834252625703812,-7.023266792297362,6.856555461883546
1746551262.4666862,-0.10560420155525208,-7.019761085510253,6.84068775177002
1746551262.562701,-0.12382886558771133,-7.015084743499755,6.857111454010011
1746551262.6689627,-0.11488234251737595,-7.019295215606689,6.850625514984132
1746551262.7553103,-0.11898793280124664,-7.014687538146972,6.865619659423829
1746551262.8728125,-0.11486300826072693,-7.020611286163329,6.8453688621521005
1746551262.9633415,-0.12259448319673538,-7.003552436828612,6.851330280303956
1746551263.0443811,-0.11110493540763855,-7.002647399902343,6.8519935607910165
1746551263.1490176,-0.12387286126613617,-7.011434078216552,6.864023685455323
1746551263.241143,-0.11655519902706146,-7.004915237426757,6.847727775573731
1746551263.3468559,-0.1257982701063156,-7.005691051483153,6.847579956054688
1746551263.4275067,-0.1088537648320198,-7.003782272338866,6.857697010040284
1746551263.5237749,-0.11242280155420303,-7.010809421539306,6.858207225799561
1746551263.6292381,-0.12251567095518112,-7.013561725616454,6.850298404693604
1746551263.7152147,-0.11388140916824341,-7.006133556365966,6.84777593612671
1746551263.836052,-0.10743623971939087,-7.009972095489501,6.8424696922302255
1746551263.9091637,-0.1243627518415451,-7.011570930480956,6.868768215179444
1746551264.0096905,-0.11419399827718735,-7.003002166748046,6.8475122451782235
1746551264.1153066,-0.12609966099262238,-7.01152467727661,6.850903987884522
1746551264.1976547,-0.1022854596376419,-6.995952606201171,6.851563453674317
1746551264.3084114,-0.1087903305888176,-7.004834175109862,6.855789661407472
1746551264.40059,-0.12092908471822739,-7.0058860778808585,6.850749492645265
1746551264.488515,-0.1135406419634819,-6.997863769531249,6.855901241302491
1746551264.595616,-0.10432762652635574,-6.99143362045288,6.846677780151368
1746551264.6781852,-0.12130267918109894,-6.9913387298583975,6.856379032135011
1746551264.789264,-0.11983402818441391,-6.991299152374267,6.85500717163086
1746551264.8705273,-0.11734478175640106,-6.999681472778319,6.849447250366212
1746551264.967172,-0.11074473708868027,-6.984783172607421,6.849090099334718
1746551265.0698016,-0.11727160215377808,-6.992327690124511,6.846557617187501
1746551265.156309,-0.12488935142755508,-6.9951438903808585,6.853852272033692
1746551265.2620492,-0.12158192694187164,-6.99731159210205,6.8625855445861825
1746551265.3483849,-0.1201118677854538,-6.99130630493164,6.845971107482911
1746551265.4447532,-0.12304481118917465,-7.0023837089538565,6.855855464935304
1746551265.5498805,-0.10931197553873062,-6.980035781860351,6.854313850402833
1746551265.6403134,-0.10981416702270508,-6.997877597808837,6.8605031967163095
1746551265.7522774,-0.11461035162210464,-6.998686790466308,6.856168746948243
1746551265.8337142,-0.11012835055589676,-6.983428955078124,6.8597402572631845
1746551265.9279666,-0.12715917825698853,-6.97559356689453,6.846846103668214
1746551266.0298038,-0.11238758265972137,-6.977693557739257,6.853652954101563
1746551266.1184099,-0.1266912966966629,-6.992929935455321,6.863949775695802
1746551266.2295403,-0.10606677830219269,-6.991832256317138,6.854888439178468
1746551266.310517,-0.12452048808336258,-6.978829383850097,6.853703498840333
1746551266.4078786,-0.11957968026399612,-6.981462955474853,6.856564521789552
1746551266.518698,-0.12498816102743149,-6.987178325653075,6.852739810943604
1746551266.5994527,-0.10765102505683899,-6.986593723297118,6.853785037994386
1746551266.7193134,-0.11451152712106705,-6.98211908340454,6.862823009490968
1746551266.7925525,-0.1203480139374733,-6.976146221160888,6.863454818725587
1746551266.8892722,-0.11323115229606628,-6.98503541946411,6.84793519973755
1746551266.9909818,-0.11539258062839508,-6.985354423522948,6.855828762054444
1746551267.0808768,-0.10868926346302032,-6.983982563018798,6.849796772003175
1746551267.1833062,-0.1261407732963562,-6.99161148071289,6.865950584411622
1746551267.2725375,-0.11185744404792786,-6.974274158477782,6.8630690574646005
1746551267.3691278,-0.10875070840120316,-6.984327316284179,6.856670379638673
1746551267.4710426,-0.10859406739473343,-6.968849658966064,6.861426353454591
1746551267.5612454,-0.1093246266245842,-6.97144317626953,6.854072093963624
1746551267.675843,-0.11778318136930466,-6.973811626434325,6.846232891082765
1746551267.7506585,-0.11520832777023315,-6.979812145233153,6.842763423919679
1746551267.8483083,-0.10981059074401855,-6.974195003509521,6.864612579345704
1746551267.9531133,-0.11618044227361679,-6.972887039184569,6.852437496185304
1746551268.040325,-0.12668031454086304,-6.969213008880614,6.840160846710206
1746551268.1508834,-0.11148146539926529,-6.982500076293944,6.850342273712159
1746551268.246877,-0.11311875283718109,-6.962449073791503,6.8604068756103525
1746551268.3290112,-0.12396139651536942,-6.969575881958007,6.862480640411378
1746551268.4334025,-0.11315247416496277,-6.976152896881103,6.856007099151612
1746551268.5199614,-0.11675015091896057,-6.972417354583739,6.85193157196045
1746551268.6423125,-0.11346125602722168,-6.962101459503173,6.841532230377198
1746551268.7126038,-0.10902620106935501,-6.966511726379394,6.857536792755128
1746551268.8261986,-0.11904601007699966,-6.962102413177489,6.85041379928589
1746551268.9141276,-0.10530760139226913,-6.960206985473632,6.86466407775879
1746551269.0034869,-0.11182831227779388,-6.961397647857665,6.860387802124024
1746551269.1114025,-0.1131756603717804,-6.96093988418579,6.867568016052247
1746551269.1966538,-0.1111212894320488,-6.950063228607177,6.848487854003907
1746551269.2915695,-0.10723022371530533,-6.9524545669555655,6.8589162826538095
1746551269.3939033,-0.12396221607923508,-6.960761547088622,6.869827747344972
1746551269.481479,-0.10733836889266968,-6.9596824645996085,6.8534936904907235
1746551269.593059,-0.11752580851316452,-6.952885150909423,6.868547916412354
1746551269.6739943,-0.1151774451136589,-6.962356567382812,6.860092639923097
1746551269.7703872,-0.11964932084083557,-6.951943397521972,6.859656810760499
1746551269.8769345,-0.1326155960559845,-6.964225769042968,6.845808029174806
1746551269.961806,-0.1176508292555809,-6.9703073501586905,6.861516952514649
1746551270.0672154,-0.11961042881011963,-6.990564823150634,6.858483314514161
1746551270.1536996,-0.11423085629940033,-6.968632698059081,6.853232383728028
1746551270.250228,-0.10332591831684113,-6.975148200988769,6.864258766174317
1746551270.359118,-0.11907654255628586,-6.966312408447265,6.851344108581544
1746551270.4425578,-0.10728835314512253,-6.975415706634521,6.851666927337647
1746551270.5552788,-0.1146593764424324,-6.978426933288573,6.863364219665528
1746551270.6365168,-0.11743326485157013,-6.969332218170165,6.873478412628175
1746551270.7316875,-0.12755686044692993,-6.98070478439331,6.854934692382813
1746551270.8362317,-0.1100095584988594,-7.002011775970458,6.868998527526856
1746551270.924139,-0.10818888992071152,-6.981696605682372,6.876642704010011
1746551271.0343516,-0.0919651985168457,-7.020191192626952,6.860459327697755
1746551271.115737,-0.11403832584619522,-6.995469093322753,6.853246212005616
1746551271.2129054,-0.11603419482707977,-6.987098217010497,6.8500146865844735
1746551271.3161721,-0.13809077441692352,-6.971559047698974,6.849182605743409
1746551271.4048724,-0.11305052042007446,-7.005811691284179,6.833303928375245
1746551271.519889,-0.09773465245962143,-7.008339881896972,6.885612010955811
1746551271.5945287,-0.06146709993481636,-6.988464832305907,6.883773803710938
1746551271.6925392,-0.14008215069770813,-7.0011205673217765,6.837154388427735
1746551271.8000753,-0.07442601025104523,-7.0339937210083,6.80822515487671
1746551271.8842292,-0.09912998229265213,-6.910574436187743,6.850238800048829
1746551271.9894662,-0.17321765422821045,-6.916226387023925,6.833824634552003
1746551272.07615,-0.17488758265972137,-6.961518764495849,6.886219501495362
1746551272.1720138,-0.14387132227420807,-6.966389179229735,6.8733253479003915
1746551272.27721,-0.14204594492912292,-6.981529712677001,6.856574535369874
1746551272.3636143,-0.10369729995727539,-6.987775802612304,6.848555564880372
1746551272.47485,-0.08142631500959396,-6.975456714630126,6.835426807403565
1746551272.5578132,-0.08464569598436356,-6.977514743804931,6.8456459045410165
1746551272.6560438,-0.12462474405765533,-6.972257137298583,6.871282577514649
1746551272.7555103,-0.12147562205791473,-6.97837734222412,6.8463406562805185
1746551272.845552,-0.13787449896335602,-6.973257541656493,6.873389244079591
1746551272.9502053,-0.1272033154964447,-6.969342708587646,6.880475521087647
1746551273.037407,-0.1229182630777359,-6.994618892669677,6.873396873474122
1746551273.1341372,-0.09231234341859818,-6.992263793945312,6.828176975250245
1746551273.2360482,-0.11818118393421173,-6.984622001647948,6.862057685852052
1746551273.3257194,-0.10791292041540146,-6.989543437957763,6.85251808166504
1746551273.443937,-0.11106175184249878,-6.9975948333740225,6.853775024414063
1746551273.5177095,-0.1138785108923912,-6.996601104736327,6.857035160064698
1746551273.6146982,-0.1185651421546936,-6.981277465820312,6.857117652893067
1746551273.7169542,-0.11388764530420303,-6.990332603454589,6.858119010925294
1746551273.8093593,-0.12125036865472794,-7.0096797943115225,6.852770328521729
1746551273.9195068,-0.10875731706619263,-7.004128456115722,6.8493714332580575
1746551274.0007098,-0.11995643377304077,-7.010735034942626,6.852878093719483
1746551274.1027334,-0.10256100445985794,-7.010042190551757,6.860552310943604
1746551274.2022367,-0.10833907872438431,-7.004507064819335,6.869704246520997
1746551274.287624,-0.115168496966362,-7.006573200225829,6.851942062377931
1746551274.409769,-0.11318092048168182,-7.008956432342528,6.862342834472657
1746551274.4794278,-0.1116432175040245,-7.00346803665161,6.8451504707336435
1746551274.5782573,-0.10986237227916718,-7.011383533477782,6.866329193115235
1746551274.6771598,-0.1136128306388855,-7.005802631378173,6.85314178466797
1746551274.7670255,-0.11693008244037628,-7.002958297729491,6.850813388824464
1746551274.8745184,-0.12402097135782242,-7.0048813819885245,6.86393165588379
1746551274.9585803,-0.11102832853794098,-7.008403778076171,6.850891590118409
1746551275.0561707,-0.10962652415037155,-7.010929584503173,6.851438522338868
1746551275.1580794,-0.11743780225515366,-7.02766466140747,6.851542472839356
1746551275.2483435,-0.105705626308918,-7.006540775299071,6.875196933746339
1746551275.356993,-0.11320063471794128,-6.99749994277954,6.864767074584962
1746551275.4384675,-0.2584310472011566,-7.0999693870544425,6.958751678466798
1746551275.5342762,-0.12087550759315491,-6.992366313934325,6.88176441192627
1746551275.6423788,-0.1319713294506073,-6.989713668823241,6.846858501434327
1746551275.725959,-0.11494506150484085,-7.017938613891601,6.863757610321046
1746551275.837597,-0.09615447372198105,-7.032452583312987,6.847286224365235
1746551275.920741,-0.12498141825199127,-6.935438632965087,6.822397232055665
1746551276.018011,-0.16568900644779205,-6.991717338562011,6.820937156677247
1746551276.1196575,-0.25353384017944336,-7.221919059753417,6.8053250312805185
1746551276.2074149,-0.1360129415988922,-7.034342765808105,6.876869678497315
1746551276.3250923,-0.13710938394069672,-6.96889305114746,6.828536033630372
1746551276.3992887,-0.1056802049279213,-7.025535583496093,6.906503200531007
1746551276.495928,-0.08878874033689499,-6.998931884765624,6.858283042907716
1746551276.601908,-0.12924064695835114,-7.0135178565978995,6.849298954010011
1746551276.691674,-0.13235528767108917,-7.016790866851806,6.857435703277589
1746551276.7932758,-0.1293972134590149,-7.010380744934081,6.856232643127442
1746551276.8802092,-0.10955152660608292,-7.008161544799804,6.867189407348634
1746551276.9761038,-0.11822348088026047,-6.993577957153319,6.852578639984132
1746551277.0812645,-0.11184675246477127,-7.030841827392577,6.8503994941711435
1746551277.1681743,-0.11088238656520844,-7.003293991088866,6.840956687927247
1746551277.279169,-0.1389889121055603,-6.994999885559081,6.8159451484680185
1746551277.359904,-0.11921974271535873,-7.01485252380371,6.842249393463136
1746551277.4562523,-0.11021427065134048,-7.042611598968505,6.894017219543458
1746551277.5647302,-0.12973648309707642,-7.018303871154784,6.857246398925782
1746551277.6499658,-0.1271822601556778,-6.96689748764038,6.860535144805909
1746551277.7558482,-0.13072778284549713,-7.021422386169433,6.86374855041504
1746551277.839459,-0.1012268140912056,-7.041515350341796,6.863006114959718
1746551277.9382725,-0.12481043487787247,-7.013939857482909,6.861346244812013
1746551278.0491002,-0.10389327257871628,-7.02933645248413,6.852915763854981
1746551278.1324108,-0.11097488552331924,-7.021347522735595,6.858098030090333
1746551278.2605479,-0.11869736015796661,-7.015670299530028,6.84148931503296
1746551278.3270109,-0.1334160417318344,-7.004831314086913,6.861919879913331
1746551278.4191215,-0.12529659271240234,-7.0269832611083975,6.836850166320802
1746551278.5450313,-0.11415781080722809,-7.017703056335448,6.8767738342285165
1746551278.6298966,-0.10151633620262146,-7.002985000610351,6.84282398223877
1746551278.7631063,-0.11356721073389053,-7.019515514373778,6.847806930541993
1746551278.8048484,-0.1076563149690628,-7.027173519134521,6.859416484832765
1746551278.8986564,-0.11849737912416458,-7.033342361450194,6.8386526107788095
1746551279.0262713,-0.12510517239570618,-7.016644954681396,6.870065212249757
1746551279.1522498,-0.1050090491771698,-7.012003421783446,6.877980709075929
1746551279.2104356,-0.10475170612335205,-7.023071289062499,6.851252555847169
1746551279.3089414,-0.13238300383090973,-7.032746791839599,6.85259771347046
1746551279.402771,-0.12599804997444153,-7.038930892944335,6.834840774536134
1746551279.5033128,-0.11288110911846161,-7.034545898437499,6.8502445220947275
1746551279.5719674,-0.10809767246246338,-7.018567562103271,6.869184494018556
1746551279.6838214,-0.1164335161447525,-7.026325225830077,6.861211299896241
1746551279.7793322,-0.13120995461940765,-7.029701232910155,6.850622177124024
1746551279.860444,-0.11932434141635895,-7.0129637718200675,6.847036838531495
1746551279.979251,-0.1181803047657013,-7.013226509094237,6.847987651824952
1746551280.0527322,-0.10352464765310287,-7.040147781372069,6.866391181945802
1746551280.16306,-0.1176811084151268,-7.024217605590819,6.85970687866211
1746551280.2436938,-0.11956143379211426,-7.0365257263183585,6.854048728942872
1746551280.3398497,-0.12257609516382217,-7.022011756896972,6.859972953796388
1746551280.4448085,-0.10938792675733566,-7.031316280364989,6.861369132995606
1746551280.5333765,-0.1108231320977211,-7.02130889892578,6.857933044433595
1746551280.6430345,-0.11194437742233276,-7.017676353454589,6.855504989624024
1746551280.724136,-0.10550425946712494,-7.013208866119384,6.849684238433839
1746551280.8205953,-0.1186198815703392,-7.0213842391967765,6.8339905738830575
1746551280.9244838,-0.12970510125160217,-7.02097988128662,6.85055160522461
1746551281.0120738,-0.10274873673915863,-7.02240753173828,6.8583083152771005
1746551281.1387942,-0.11790695786476135,-7.041181564331054,6.866618156433106
1746551281.204029,-0.10812769830226898,-6.996595859527587,6.847622871398927
1746551281.3008769,-0.09706760942935944,-7.022959232330321,6.849369525909425
1746551281.4129968,-0.1166239082813263,-7.028797149658202,6.8444862365722665
1746551281.4919796,-0.12061554193496704,-7.018188953399657,6.854253768920899
1746551281.5982432,-0.12399464845657349,-7.007342815399169,6.8508267402648935
1746551281.6856112,-0.12446999549865723,-7.008440494537353,6.852294445037843
1746551281.7808194,-0.10847175866365433,-7.021924972534179,6.863755226135255
1746551281.8869383,-0.12217822670936584,-7.015272140502929,6.862670421600343
1746551281.972457,-0.10729419440031052,-7.04134702682495,6.832749843597413
1746551282.0835793,-0.06657373905181885,-6.998950481414794,6.827253818511964
1746551282.1639953,-0.14646512269973755,-7.1181249618530265,6.962244987487794
1746551282.2603567,-0.1474839448928833,-7.065330505371093,6.847268581390382
1746551282.3657253,-0.09623029828071594,-6.95915937423706,6.825613975524903
1746551282.4519806,-0.1051027849316597,-7.009334087371825,6.876413822174073
1746551282.5573845,-0.09878072142601013,-7.012134552001952,6.8464980125427255
1746551282.645289,-0.11877485364675522,-7.032545566558837,6.864538192749024
1746551282.7416155,-0.12619608640670776,-7.011380195617675,6.855989933013917
1746551282.8462825,-0.12854690849781036,-7.014582157135009,6.845402240753175
1746551282.9352374,-0.10498204827308655,-7.00254201889038,6.8720765113830575
1746551283.048931,-0.11836200207471848,-7.0090060234069815,6.851828575134278
1746551283.1263814,-0.0965331494808197,-7.02060842514038,6.853480339050294
1746551283.2223983,-0.16547608375549316,-7.050318717956542,6.833326816558839
1746551283.3277366,-0.10192417353391647,-7.025956153869628,6.8996319770813
1746551283.4129589,-0.14500412344932556,-6.98633050918579,6.88600778579712
1746551283.5238411,-0.11239812523126602,-6.981655597686767,6.824597358703614
1746551283.605019,-0.10678041726350784,-7.0483970642089835,6.863459110260011
1746551283.7019908,-0.11425823718309402,-7.0238327980041495,6.868436813354493
1746551283.8065903,-0.12781138718128204,-7.044437408447265,6.868911266326905
1746551283.9026592,-0.09408658742904663,-7.023900032043456,6.865262031555177
1746551284.0121655,-0.12310636043548584,-7.025610446929931,6.874695301055909
1746551284.0908117,-0.11365185678005219,-6.998648166656493,6.858695507049561
1746551284.1832986,-0.13495084643363953,-7.038578510284423,6.875640392303468
1746551284.2869382,-0.08792918920516968,-7.038038253784179,6.866999149322511
1746551284.3756847,-0.09854136407375336,-6.970441341400146,6.860679626464845
1746551284.4806342,-0.09491658210754395,-7.0038719177246085,6.860966682434083
1746551284.567508,-0.12969090044498444,-7.008596897125243,6.862664222717286
1746551284.6642685,-0.10843613743782043,-7.011742591857909,6.85369634628296
1746551284.7679389,-0.13167233765125275,-7.026990413665771,6.850410461425782
1746551284.8559837,-0.12077318876981735,-7.012303352355956,6.84781837463379
1746551284.9712963,-0.10612399131059647,-6.993981361389159,6.867934703826905
1746551285.0488534,-0.10610790550708771,-6.994234085083007,6.863537788391114
1746551285.1471715,-0.128870889544487,-6.998114585876464,6.855104446411134
1746551285.2478435,-0.09462326765060425,-7.013640403747558,6.846422195434571
1746551285.3482304,-0.12889397144317627,-7.024179935455321,6.856515884399415
1746551285.4883955,-0.11676886677742004,-7.006641387939452,6.8597192764282235
1746551285.5380757,-0.11539824306964874,-6.99250316619873,6.867516994476319
1746551285.6261425,-0.11365571618080139,-6.996816635131835,6.853375434875489
1746551285.728711,-0.11403795331716537,-7.006267547607421,6.868848800659181
1746551285.8181477,-0.11618731915950775,-7.012254238128661,6.856101036071778
1746551285.9360442,-0.10435561090707779,-7.002978324890136,6.858119487762452
1746551286.0122304,-0.1114543154835701,-7.018592834472655,6.859731197357179
1746551286.117881,-0.10494387149810791,-7.011406421661376,6.85186529159546
1746551286.2152646,-0.10390448570251465,-7.001142501831054,6.840590000152589
1746551286.2985256,-0.11726577579975128,-7.012227535247802,6.853802680969239
1746551286.4068804,-0.11357934772968292,-7.020740509033202,6.8533291816711435
1746551286.494936,-0.12901684641838074,-7.008924484252929,6.84997844696045
1746551286.5878549,-0.10621578246355057,-7.006380558013915,6.851275444030763
1746551286.6954193,-0.11965502053499222,-7.009537696838378,6.864923954010011
1746551286.77621,-0.12571397423744202,-7.00816774368286,6.859040260314942
1746551286.8875012,-0.10937357693910599,-7.009575843811034,6.869863510131837
1746551286.9678013,-0.11978290975093842,-7.024204730987548,6.864407539367677
1746551287.0656073,-0.11487104743719101,-7.016873836517333,6.862093448638917
1746551287.171161,-0.11001583188772202,-7.017479419708251,6.848881244659425
1746551287.2567656,-0.11685147136449814,-7.0227904319763175,6.85258436203003
1746551287.3747823,-0.10888276994228363,-7.027947425842284,6.869678497314454
1746551287.4482374,-0.1088060811161995,-7.016722679138183,6.874028682708741
1746551287.5477746,-0.11731592565774918,-7.014986515045165,6.859523296356202
1746551287.6549108,-0.11262762546539307,-7.027442455291747,6.858439922332765
1746551287.7392318,-0.11134020239114761,-7.02765655517578,6.850012779235841
1746551287.8524036,-0.11754818260669708,-7.022197246551513,6.8608179092407235
1746551287.9289982,-0.11347842216491699,-7.017480850219726,6.857657432556153
1746551288.025232,-0.11988041549921036,-7.0212106704711905,6.862049102783204
1746551288.130507,-0.11257046461105347,-7.00951862335205,6.8606324195861825
1746551288.2179277,-0.11106180399656296,-7.0127854347228995,6.8654823303222665
1746551288.330143,-0.1277197003364563,-7.015075683593749,6.870641231536866
1746551288.4099035,-0.12127082794904709,-7.023669242858886,6.850393295288087
1746551288.506573,-0.12317202240228653,-7.022229671478271,6.860260963439942
1746551288.6163208,-0.1136559247970581,-7.0223116874694815,6.8504090309143075
1746551288.7044713,-0.11284133791923523,-7.017706394195556,6.853406429290772
1746551288.8174262,-0.11195775866508484,-7.013477325439452,6.858184337615968
1746551288.8907833,-0.11747810989618301,-7.0186166763305655,6.86011552810669
1746551288.9898446,-0.1262642741203308,-7.01736831665039,6.855704307556153
1746551289.0933318,-0.10792797058820724,-7.019083023071288,6.848628997802735
1746551289.1789935,-0.1092022955417633,-7.039057731628417,6.862349033355714
1746551289.2846735,-0.10267406702041626,-7.0179357528686515,6.85537338256836
1746551289.37098,-0.10715258866548538,-7.023537158966064,6.860036373138429
1746551289.4683437,-0.11240285634994507,-7.017785072326659,6.850361824035645
1746551289.572336,-0.11366679519414902,-7.005436420440673,6.85608196258545
1746551289.6588466,-0.10940796136856079,-7.036150932312011,6.856931686401368
1746551289.7701104,-0.11485251039266586,-7.013163089752196,6.859986305236817
1746551289.8519628,-0.11095091700553894,-7.0268516540527335,6.860826492309571
1746551289.948144,-0.11246058344841003,-7.013386726379394,6.850834846496583
1746551290.0505924,-0.10609016567468643,-7.02891445159912,6.852346420288087
1746551290.1397603,-0.11706303805112839,-7.004724502563476,6.857974529266358
1746551290.2503386,-0.12028151005506516,-7.003386974334716,6.844800949096681
1746551290.33359,-0.11579038947820663,-7.023622035980224,6.862257480621339
1746551290.4274294,-0.11069552600383759,-7.006097793579101,6.8633484840393075
1746551290.5331059,-0.12105158716440201,-7.012684822082519,6.858970165252686
1746551290.6200552,-0.11849793791770935,-7.0190343856811515,6.857531547546388
1746551290.7369523,-0.1131105124950409,-7.030302047729491,6.857137680053712
1746551290.814106,-0.11568935960531235,-7.0224947929382315,6.850954055786134
1746551290.910461,-0.10589533299207687,-7.02117109298706,6.86600160598755
1746551291.0138803,-0.10799390822649002,-7.019080638885497,6.858171939849854
1746551291.1022236,-0.12221790850162506,-7.022722721099853,6.854783058166505
1746551291.2144618,-0.1221330538392067,-7.016157627105712,6.865519046783448
1746551291.293721,-0.11175978183746338,-7.025168895721435,6.870342254638673
1746551291.3917074,-0.1214301809668541,-7.010454654693603,6.8549466133117685
1746551291.4940004,-0.11530973762273788,-6.996890068054198,6.8520545959472665
1746551291.5804331,-0.11225347965955734,-7.012749671936034,6.84651279449463
1746551291.6948214,-0.11184873431921005,-7.002399444580077,6.8621792793273935
1746551291.773707,-0.0922907292842865,-7.022496700286864,6.861043453216554
1746551291.8685408,-0.1483287513256073,-6.983995914459228,6.837550640106202
1746551291.977797,-0.143715038895607,-7.010423660278319,6.8528151512146005
1746551292.0635238,-0.12949822843074799,-6.994611263275146,6.8750953674316415
1746551292.165107,-0.10557112842798233,-7.024104118347167,6.891950130462647
1746551292.2525055,-0.13967584073543549,-6.947052001953124,6.772497177124024
1746551292.3490663,-0.11159484833478928,-6.995319843292235,6.808156967163087
1746551292.454302,-0.1048809215426445,-7.006446361541747,6.848248004913331
1746551292.5411043,-0.11416895687580109,-6.991329669952392,6.851462364196778
1746551292.6610928,-0.10508067905902863,-6.991151332855224,6.858716011047364
1746551292.7338343,-0.13625562191009521,-7.024155139923095,6.8858280181884775
1746551292.8311205,-0.11139009147882462,-6.9882540702819815,6.849875926971436
1746551292.9329076,-0.10450439900159836,-7.00927448272705,6.856072425842286
1746551293.022428,-0.1093764528632164,-7.007637977600097,6.843879699707032
1746551293.1390133,-0.11885827779769897,-7.0110530853271475,6.86985206604004
1746551293.2146523,-0.1202540323138237,-6.99767780303955,6.852344989776612
1746551293.3107924,-0.12002245336771011,-7.005831241607665,6.864123821258546
1746551293.4146361,-0.11557520180940628,-7.01836061477661,6.857223987579347
1746551293.5032213,-0.1031491830945015,-7.032738685607909,6.869582176208497
1746551293.620726,-0.12545500695705414,-7.009051322937011,6.86667823791504
1746551293.6953738,-0.10539861023426056,-6.987692356109618,6.857189655303956
1746551293.7921486,-0.10694906860589981,-7.003155708312987,6.836350917816163
1746551293.903977,-0.11738921701908112,-7.023622512817382,6.84781312942505
1746551293.9843497,-0.10496483743190765,-7.010787963867187,6.857123851776124
1746551294.0890682,-0.12189088761806488,-7.1008920669555655,6.81937074661255
1746551294.176821,-0.11386122554540634,-7.0344820022583,6.9137601852417
1746551294.2709646,-0.12430054694414139,-7.004130363464355,6.875597953796388
1746551294.375956,-0.10428284108638763,-6.994597434997558,6.8726544380188
1746551294.4623756,-0.11191678047180176,-7.028132915496825,6.870239257812501
1746551294.5757203,-0.11947716027498245,-7.004129886627196,6.8475027084350595
1746551294.6553404,-0.10014751553535461,-7.011055946350097,6.850242137908936
1746551294.7525976,-0.11659310013055801,-7.003671169281005,6.848299026489259
1746551294.8564494,-0.10173609107732773,-6.991636276245116,6.8664517402648935
1746551294.945046,-0.1190229132771492,-6.992276191711425,6.861122131347657
1746551295.0508616,-0.11654990166425705,-6.983174800872802,6.860339164733888
1746551295.1455824,-0.13237015902996063,-6.999443531036376,6.8638334274292
1746551295.2361612,-0.10661063343286514,-7.000154972076415,6.829064369201661
1746551295.33572,-0.11653219908475876,-6.998939514160155,6.833414554595948
1746551295.4250445,-0.10881199687719345,-6.995379924774169,6.843680381774903
1746551295.539353,-0.12389148026704788,-6.946959495544433,6.841548442840577
1746551295.616121,-0.13994908332824707,-6.993389129638671,6.813454151153565
1746551295.7124567,-0.1404876559972763,-6.982678413391112,6.850024700164796
1746551295.822473,-0.11616506427526474,-6.999680042266845,6.843643188476563
1746551295.9049187,-0.12258832156658173,-7.005523681640624,6.862902164459229
1746551296.015716,-0.11117325723171234,-7.007240772247314,6.841363430023194
1746551296.0971024,-0.11663059145212173,-7.002003669738769,6.850014209747315
1746551296.1938097,-0.10741002857685089,-7.012164592742919,6.858485221862794
1746551296.3045616,-0.12516561150550842,-7.016192913055419,6.85102128982544
1746551296.3858063,-0.12466155737638474,-7.0128436088562,6.855303287506104
1746551296.49467,-0.11376435309648514,-7.007103919982909,6.865730285644532
1746551296.5770183,-0.10864254832267761,-7.003341197967528,6.860960483551026
1746551296.672789,-0.11718758195638657,-7.016716480255126,6.850474357604981
1746551296.7774491,-0.10620409995317459,-7.0174007415771475,6.853467464447022
1746551296.8667424,-0.11570462584495544,-7.00452709197998,6.865225315093995
1746551296.9691327,-0.1108272448182106,-7.014056205749511,6.849854469299317
1746551297.055649,-0.11041589081287384,-7.013619899749755,6.870015144348145
1746551297.1534576,-0.11815357208251953,-7.0004940032958975,6.85644817352295
1746551297.258024,-0.1111203283071518,-7.005664348602294,6.856925487518311
1746551297.3443804,-0.08296258747577667,-6.9123754501342765,6.843426227569581
1746551297.4548187,-0.11767920106649399,-7.004481315612792,6.874489307403565
1746551297.5361054,-0.13136744499206543,-7.0336899757385245,6.887639045715333
1746551297.6367838,-0.07641245424747467,-6.957283973693847,6.81447458267212
1746551297.73764,-0.13485266268253326,-6.97330093383789,6.816316604614259
1746551297.8277404,-0.09901507943868637,-7.06632375717163,6.867566585540772
1746551297.936507,-0.09528008103370667,-6.984792232513427,6.855072498321534
1746551298.0176754,-0.09606152772903442,-7.008276462554931,6.858222484588624
1746551298.1148233,-0.1209205836057663,-7.003913402557372,6.843653202056886
1746551298.218072,-0.12398621439933777,-7.018131256103515,6.846529960632325
1746551298.3066034,-0.11018145829439163,-7.007194519042968,6.856740474700929
1746551298.426373,-0.1245526671409607,-7.011637687683105,6.85636854171753
1746551298.4980967,-0.11967869848012924,-7.021402835845946,6.860404491424561
1746551298.594563,-0.10026311874389648,-7.004567146301269,6.842822551727296
1746551298.7054434,-0.12288674712181091,-7.0264501571655265,6.875880718231202
1746551298.7871454,-0.082431860268116,-7.017230510711669,6.820682048797608
1746551298.8925257,-0.12319698184728622,-7.032758712768554,6.8686208724975595
1746551298.9800048,-0.1242363452911377,-7.017389297485351,6.856303215026856
1746551299.0760138,-0.12800723314285278,-6.986568927764892,6.8646793365478525
1746551299.1787593,-0.0810011699795723,-6.899292469024657,6.801100254058839
1746551299.2680724,-0.0999983549118042,-7.015752315521239,6.838353633880616
1746551299.3793683,-0.14139065146446228,-7.005806922912597,6.79297685623169
1746551299.4596193,-0.12182366847991943,-7.0144305229187,6.85206699371338
1746551299.5559866,-0.11668326705694199,-6.998364925384521,6.8603763580322275
1746551299.6593704,-0.11505015939474106,-7.073122978210448,6.8405518531799325
1746551299.748899,-0.15115997195243835,-7.027925968170165,6.839057445526124
1746551299.8590562,-0.16730079054832458,-7.04188585281372,6.873239994049073
1746551299.9397933,-0.09773892909288406,-6.948089599609374,6.850056171417237
1746551300.0368772,-0.11607012152671814,-7.000832080841064,6.854747772216798
1746551300.1394346,-0.11001484096050262,-6.994422435760497,6.829071998596192
1746551300.2288172,-0.0957784503698349,-6.994983673095702,6.847784996032716
1746551300.3436687,-0.10388559103012085,-6.998164653778075,6.874432563781739
1746551300.4205842,-0.11361361294984818,-6.978547573089599,6.873131752014161
1746551300.517099,-0.1072256937623024,-7.001924514770507,6.856803417205811
1746551300.6244528,-0.055507171899080276,-6.870835304260253,6.843657016754151
1746551300.7083924,-0.120277039706707,-7.020475387573241,6.881811141967774
1746551300.8182676,-0.10996522754430771,-6.975835323333739,6.860949039459229
1746551300.9002826,-0.11270513385534286,-6.9698095321655265,6.858375072479249
1746551300.998985,-0.11176059395074844,-7.014275550842284,6.8813724517822275
1746551301.1020124,-0.12683771550655365,-6.995362758636474,6.865520477294923
1746551301.1980376,-0.11433805525302887,-6.997311115264892,6.867326259613038
1746551301.3001068,-0.10317649692296982,-6.88528823852539,6.831501960754395
1746551301.38138,-0.10947359353303909,-7.01442003250122,6.859010696411134
1746551301.4772236,-0.10345590114593506,-6.997573852539062,6.852864265441895
1746551301.5793412,-0.08876436203718185,-6.9881834983825675,6.848297595977784
1746551301.6717377,-0.1124672144651413,-6.986284255981444,6.875173091888429
1746551301.7766805,-0.13708247244358063,-6.999088287353515,6.8613905906677255
1746551301.8670094,-0.11224289983510971,-6.9913573265075675,6.858596324920655
1746551301.9566176,-0.14209525287151337,-6.995303153991698,6.870779514312745
1746551302.0601454,-0.11309796571731567,-6.997756004333495,6.859265327453614
1746551302.149791,-0.1063946932554245,-6.984477519989013,6.869457721710206
1746551302.2596722,-0.11316841840744019,-6.971449375152587,6.832167148590089
1746551302.3405623,-0.12428294867277145,-6.993527889251708,6.859019279479981
1746551302.4365861,-0.12583652138710022,-7.010169029235839,6.847239494323731
1746551302.54248,-0.12252283096313477,-7.01445436477661,6.863224506378175
1746551302.6337037,-0.11584696173667908,-7.008837699890136,6.853009223937989
1746551302.740472,-0.10331569612026215,-7.0069942474365225,6.860558509826661
1746551302.8223934,-0.1054525226354599,-7.005247116088866,6.863325119018556
1746551302.9191213,-0.13427318632602692,-7.024964809417724,6.866724967956544
1746551303.0207055,-0.10576407611370087,-7.007213115692138,6.858424663543702
1746551303.1085517,-0.12563033401966095,-7.010143280029296,6.854310989379884
1746551303.2257218,-0.0874030739068985,-7.018047332763671,6.855408668518067
1746551303.302157,-0.09433221817016602,-7.013300418853759,6.848181724548341
1746551303.39913,-0.12234638631343842,-7.006545543670653,6.8548526763916025
1746551303.50996,-0.12347690016031265,-7.003848075866698,6.860388755798341
1746551303.5950463,-0.13129828870296478,-7.007530212402343,6.8564138412475595
1746551303.701354,-0.10388494282960892,-7.006720066070556,6.869824409484864
1746551303.7823112,-0.09452595561742783,-7.026927471160888,6.858966350555421
1746551303.8803773,-0.10600058734416962,-7.017056465148925,6.846289634704591
1746551303.9806788,-0.11270879954099655,-7.019072532653808,6.861246585845948
1746551304.0714285,-0.11973009258508682,-7.020195007324218,6.854994297027589
1746551304.1813962,-0.11027801781892776,-7.00327444076538,6.861913204193116
1746551304.2626667,-0.11075029522180557,-7.0089755058288565,6.84742021560669
1746551304.358463,-0.12150705605745316,-7.0125951766967765,6.864609241485597
1746551304.4641972,-0.11793649196624756,-7.016239643096923,6.862468242645265
1746551304.5502024,-0.1274888664484024,-7.005668640136718,6.870771884918214
1746551304.6601393,-0.10693147778511047,-6.99769639968872,6.830398082733155
1746551304.7422655,-0.11948642134666443,-7.017226219177245,6.850093841552735
1746551304.8386893,-0.1281018704175949,-7.020128250122069,6.8447632789611825
1746551304.941709,-0.13851645588874817,-7.008105754852294,6.86617660522461
1746551305.032468,-0.11678733676671982,-7.008340835571288,6.87081003189087
1746551305.144922,-0.1342388093471527,-7.008227825164794,6.86063575744629
1746551305.22246,-0.10160596668720245,-7.031498908996581,6.842115402221681
1746551305.3188317,-0.11023682355880737,-7.00434923171997,6.8487868309021005
1746551305.4297597,-0.1115335002541542,-7.006181240081786,6.856215953826905
1746551305.5118804,-0.11448780447244644,-7.021445751190185,6.85558843612671
1746551305.6241229,-0.11229830235242844,-7.023110389709472,6.866586685180665
1746551305.7039337,-0.10849541425704956,-7.0104708671569815,6.85968828201294
1746551305.8046067,-0.11585965007543564,-6.9930758476257315,6.83401107788086
1746551305.9099832,-0.12157072871923447,-7.013770580291747,6.8732266426086435
1746551305.9921565,-0.11616038531064987,-6.982279777526855,6.837578296661378
1746551306.1105218,-0.12260601669549942,-7.009095668792724,6.857163429260255
1746551306.1880019,-0.13340038061141968,-7.074633121490478,6.89956283569336
1746551306.2806365,-0.09976537525653839,-6.987001419067382,6.859652519226075
1746551306.3825736,-0.11368215084075928,-7.026861667633056,6.847527027130128
1746551306.4720254,-0.14156664907932281,-7.05369472503662,6.868908882141114
1746551306.5776381,-0.11534981429576874,-7.001234054565429,6.852537631988526
1746551306.664578,-0.1171526163816452,-7.0098814964294425,6.851153850555421
1746551306.761312,-0.12611058354377747,-7.032376766204833,6.870177745819093
1746551306.8646615,-0.11405166238546371,-7.008624553680419,6.839317798614503
1746551306.9542797,-0.11227883398532867,-6.979244709014892,6.844500541687013
1746551307.0661972,-0.10589511692523956,-7.020253181457519,6.849140644073487
1746551307.1483893,-0.10647596418857574,-7.024651527404784,6.850877761840821
1746551307.2433276,-0.12011224776506424,-7.001702308654784,6.850799560546876
1746551307.34314,-0.11422041058540344,-7.023739337921142,6.844965457916261
1746551307.4331486,-0.11482803523540497,-7.004425525665282,6.832135200500489
1746551307.543243,-0.12136927247047424,-7.009375095367431,6.851861476898194
1746551307.6263525,-0.11793938279151917,-7.016826152801513,6.862542152404786
1746551307.7210813,-0.11417900770902634,-7.008205890655517,6.851774215698243
1746551307.826886,-0.12202020734548569,-7.010426998138427,6.866081714630128
1746551307.9132104,-0.12097951769828796,-7.023966789245605,6.85255002975464
1746551308.0301125,-0.1291588991880417,-7.022340774536132,6.859517574310304
1746551308.1047647,-0.10777728259563446,-6.998790740966796,6.835490226745606
1746551308.20178,-0.09859529137611389,-7.014455318450927,6.851475715637208
1746551308.3133433,-0.11324230581521988,-7.025306701660155,6.8539466857910165
1746551308.3926678,-0.11758721619844437,-6.995226860046386,6.842702388763429
1746551308.5046387,-0.11887619644403458,-7.0052499771118155,6.877017498016358
1746551308.5892205,-0.123033806681633,-6.990853309631347,6.856945037841798
1746551308.682698,-0.11141505092382431,-7.006927967071532,6.854718685150147
1746551308.7882452,-0.10572874546051025,-7.0039048194885245,6.863126277923585
1746551308.8772244,-0.11659436672925949,-7.0005431175231925,6.854351997375489
1746551309.0126843,-0.1181570440530777,-6.992048740386962,6.852341651916505
1746551309.0746315,-0.10708701610565186,-6.991730213165282,6.842494487762452
1746551309.162573,-0.11534591019153595,-6.984191894531249,6.859101295471192
1746551309.2690787,-0.10827868431806564,-7.001633167266845,6.857274532318116
1746551309.354419,-0.11406704783439636,-7.006242275238036,6.856614112854005
1746551309.4597874,-0.12303902208805084,-6.9982848167419425,6.864547729492188
1746551309.5460236,-0.10886958241462708,-7.004619598388671,6.854671478271485
1746551309.6442752,-0.12487180531024933,-7.019408702850341,6.859096050262452
1746551309.7505054,-0.12070583552122116,-7.001138687133788,6.8575077056884775
1746551309.8349042,-0.11155088990926743,-7.012174606323241,6.851283073425294
1746551309.9498713,-0.11607234179973602,-7.00849962234497,6.867639064788819
1746551310.0297883,-0.11576949805021286,-7.018610477447509,6.861333370208741
1746551310.1265485,-0.10998101532459259,-7.008532524108886,6.852283000946046
1746551310.228153,-0.10115761309862137,-7.024760246276855,6.864747047424317
1746551310.316579,-0.11426492035388947,-7.019446849822997,6.865450382232667
1746551310.4259694,-0.11019539833068848,-7.02401304244995,6.853202342987061
1746551310.509241,-0.12373188138008118,-7.009737491607665,6.871541976928712
1746551310.6029935,-0.10913748294115067,-7.029944419860839,6.850811481475831
1746551310.714786,-0.11275751143693924,-7.014824390411376,6.849768638610841
1746551310.7965865,-0.11584697663784027,-7.0121822357177725,6.856094360351563
1746551310.9179788,-0.10477861016988754,-7.022301673889159,6.852642536163331
1746551310.9908822,-0.11338844150304794,-7.02147626876831,6.852581501007081
1746551311.0835276,-0.11744529753923416,-7.018174171447753,6.85099220275879
1746551311.1885161,-0.10697812587022781,-7.023350715637206,6.856704235076905
1746551311.2805955,-0.11456514149904251,-7.013856887817382,6.855839729309083
1746551311.380989,-0.11919266730546951,-7.029831409454345,6.859651565551759
1746551311.4702072,-0.11616931110620499,-7.029160976409911,6.8604140281677255
1746551311.5638237,-0.10389792174100876,-7.018555164337157,6.8619046211242685
1746551311.6722028,-0.11286678910255432,-7.027219772338866,6.8619399070739755
1746551311.7560606,-0.11499705165624619,-7.019346237182616,6.8533363342285165
1746551311.8755357,-0.11654835194349289,-7.03120994567871,6.86103105545044
1746551311.9489906,-0.12507224082946777,-7.0277624130249015,6.844314575195313
1746551312.0449958,-0.11341230571269989,-7.020660877227782,6.865442752838136
1746551312.1502652,-0.11019845306873322,-7.021212577819823,6.868972301483155
1746551312.236517,-0.1144384816288948,-7.02107286453247,6.848653793334962
1746551312.3487883,-0.11467236280441284,-7.027962684631347,6.854307651519776
1746551312.4299445,-0.10490506142377853,-7.01524257659912,6.8592872619628915
1746551312.525814,-0.11776719987392426,-7.007953643798827,6.852269172668458
1746551312.6283503,-0.11356118321418762,-7.008230686187743,6.866329193115235
1746551312.7183006,-0.11365249752998352,-7.010910511016845,6.857570171356202
1746551312.836523,-0.10819387435913086,-6.985421180725097,6.859179973602296
1746551312.9104805,-0.12218280881643295,-7.006131172180175,6.869001388549806
1746551313.0081577,-0.11643628031015396,-6.990788936614989,6.855224609375001
1746551313.1211085,-0.1081208810210228,-6.991219043731689,6.863142490386964
1746551313.1986568,-0.10947899520397186,-6.982036590576171,6.863563060760499
1746551313.3135722,-0.10778997838497162,-6.984059810638427,6.87111520767212
1746551313.3917503,-0.11868700385093689,-6.985262393951415,6.846613883972169
1746551313.4920697,-0.10971516370773315,-6.9759154319763175,6.863387107849122
1746551313.5902567,-0.10849412530660629,-6.965649127960204,6.861577033996583
1746551313.6788914,-0.11916618794202805,-6.971345901489257,6.863322734832765
1746551313.7898211,-0.12429852783679962,-6.968180179595946,6.865626335144044
1746551313.8707864,-0.11550486832857132,-6.968659877777099,6.85850477218628
1746551313.9675174,-0.11271573603153229,-6.961573123931884,6.854084968566895
1746551314.0689654,-0.1231316328048706,-6.960518836975097,6.864884853363038
1746551314.1597884,-0.1158885657787323,-6.9540696144103995,6.869670391082765
1746551314.2639332,-0.12196595221757889,-6.956968307495116,6.8732924461364755
1746551314.3518336,-0.09794358164072037,-6.9669761657714835,6.8550429344177255
1746551314.4465451,-0.11087867617607117,-6.968246459960937,6.854738712310792
1746551314.557844,-0.11910263448953629,-6.964391231536864,6.861988067626954
1746551314.6388566,-0.10876424610614777,-6.942643165588378,6.864722251892091
1746551314.7546148,-0.11381356418132782,-6.947340011596679,6.860735416412354
1746551314.8320348,-0.1192159578204155,-6.942175865173339,6.867937564849854
1746551314.9284074,-0.11904315650463104,-6.952245235443114,6.862372875213624
1746551315.029912,-0.11473971605300903,-6.943581581115722,6.872180938720704
1746551315.1230757,-0.11088056117296219,-6.949058532714843,6.8597354888916025
1746551315.2313468,-0.1127765029668808,-6.953386306762694,6.876453399658204
1746551315.3124108,-0.1166316345334053,-6.9632201194763175,6.861820697784425
1746551315.411357,-0.12048450112342834,-6.957519054412841,6.872378826141358
1746551315.5120344,-0.11675233393907547,-6.959627628326415,6.856492519378663
1746551315.598601,-0.11772042512893677,-6.955586433410644,6.855648040771485
1746551315.7180126,-0.11812449991703033,-6.973775386810302,6.864865303039552
1746551315.7915337,-0.11658842116594315,-6.983897686004638,6.848921298980714
1746551315.8919945,-0.11514441668987274,-6.969495296478271,6.867849826812745
1746551315.994552,-0.11872199922800064,-6.982980251312255,6.866294384002686
1746551316.0795815,-0.10968798398971558,-6.989801406860351,6.857149124145509
1746551316.184567,-0.12182040512561798,-6.989934444427489,6.864015579223634
1746551316.271163,-0.12016689777374268,-7.001532077789306,6.85844373703003
1746551316.3679256,-0.11354344338178635,-7.005051136016845,6.858721256256104
1746551316.4725223,-0.11206940561532974,-6.990900993347167,6.854694843292237
1746551316.5592234,-0.10213033854961395,-7.011301040649413,6.857092857360841
1746551316.6746795,-0.1163877323269844,-6.998011589050292,6.853848934173585
1746551316.7509918,-0.12851861119270325,-7.001749992370605,6.86163091659546
1746551316.8489034,-0.10689599812030792,-7.012897491455077,6.856746673583985
1746551316.9528117,-0.11496496200561523,-7.004345893859862,6.855899333953858
1746551317.0421453,-0.11129111051559448,-7.007607460021972,6.868544101715089
1746551317.1481836,-0.1156829223036766,-7.013697624206542,6.851489067077638
1746551317.2343872,-0.11775682866573334,-7.005953311920165,6.859608173370362
1746551317.330871,-0.11920971423387527,-7.017883777618407,6.850998878479005
1746551317.4328108,-0.11774705350399017,-7.014704227447509,6.860651969909669
1746551317.5225143,-0.11914170533418655,-7.021154880523681,6.847613334655763
1746551317.6430168,-0.10827431827783585,-7.009458065032958,6.862029552459718
1746551317.7145042,-0.09781088680028915,-7.014444828033446,6.861691474914552
1746551317.8084555,-0.11551918089389801,-7.007729053497314,6.856767177581788
1746551317.9143276,-0.11800003051757812,-7.013408660888671,6.8521766662597665
1746551317.9998806,-0.10641453415155411,-7.01744508743286,6.855170726776124
1746551318.1237142,-0.11061559617519379,-7.019389629364013,6.843210220336915
1746551318.1953733,-0.11503038555383682,-7.013856887817382,6.855868339538575
1746551318.2912643,-0.11599941551685333,-7.007791996002196,6.862234115600587
1746551318.4008107,-0.09912502020597458,-7.012117385864257,6.85384225845337
1746551318.4903631,-0.11225171387195587,-7.000579833984374,6.857075691223145
1746551318.5933645,-0.12360282242298126,-7.018708705902099,6.856530189514161
1746551318.6754177,-0.11628805100917816,-7.016100883483886,6.854141712188722
1746551318.7773159,-0.10305837541818619,-7.032238483428954,6.873490810394288
1746551318.8768148,-0.1125948578119278,-7.0058908462524405,6.84603500366211
1746551318.9654636,-0.12050624936819077,-7.020559787750243,6.868875026702882
1746551319.0756972,-0.10575850307941437,-7.004441738128661,6.856098175048829
1746551319.1557665,-0.10703761875629425,-7.012305259704589,6.858171939849854
1746551319.2530549,-0.11938322335481644,-7.01062774658203,6.847710609436036
1746551319.3573573,-0.10966787487268448,-7.011384487152099,6.862398624420167
1746551319.4437494,-0.11418069154024124,-7.00065517425537,6.855461597442628
1746551319.555322,-0.1152968555688858,-7.005058765411376,6.853122234344483
1746551319.6369283,-0.11488744616508484,-7.010537147521972,6.85353708267212
1746551319.7310736,-0.11553952097892761,-7.017540931701659,6.861873626708985
1746551319.836055,-0.11470464617013931,-7.011730670928954,6.860608100891114
1746551319.923608,-0.1255563646554947,-7.024784564971923,6.857465267181397
1746551320.0405743,-0.11995008587837219,-7.019052028656005,6.857852458953858
1746551320.1186976,-0.10433045774698257,-7.00918960571289,6.863602161407472
1746551320.212646,-0.12027636170387268,-7.019999504089355,6.843229770660401
1746551320.3167815,-0.1110624149441719,-7.015642642974853,6.862646102905274
1746551320.4063272,-0.11389725655317307,-7.015489101409911,6.843547344207765
1746551320.5275073,-0.1107454001903534,-7.016389369964599,6.867754936218263
1746551320.5953603,-0.12413646280765533,-7.011986255645751,6.860323905944825
1746551320.7019186,-0.12880423665046692,-7.020883083343505,6.867769241333009
1746551320.797853,-0.10138196498155594,-7.017223834991454,6.847519397735597
1746551320.8889167,-0.11093612015247345,-7.006372451782226,6.866514205932618
1746551320.9903471,-0.11431780457496643,-7.025688648223876,6.8508973121643075
1746551321.0759954,-0.10892234742641449,-7.02392292022705,6.857283115386964
1746551321.1739914,-0.11195119470357895,-7.006914138793944,6.8621559143066415
1746551321.2768254,-0.114397332072258,-7.014604568481444,6.840861320495606
1746551321.3705099,-0.11387927085161209,-7.004805088043212,6.8543081283569345
1746551321.475085,-0.10732502490282059,-7.02176809310913,6.853467464447022
1746551321.556595,-0.10605156421661377,-7.012167453765868,6.855450153350831
1746551321.6546602,-0.12082593142986298,-7.010079860687255,6.8380703926086435
1746551321.7606692,-0.11037909984588623,-7.008718013763427,6.878873825073243
1746551321.8442745,-0.11514073610305786,-6.9931697845458975,6.873919010162354
1746551321.9539888,-0.11489426344633102,-7.021326541900634,6.865200996398927
1746551322.0372949,-0.11490340530872345,-7.018479824066161,6.860926151275636
1746551322.1344628,-0.10742165893316269,-7.026157855987548,6.868311882019044
1746551322.2374632,-0.12308163940906525,-7.012336254119872,6.866850376129151
1746551322.3265083,-0.10417576134204865,-7.0235533714294425,6.857148170471192
1746551322.4456625,-0.1129576787352562,-7.009027481079101,6.866202354431153
1746551322.5186431,-0.10659178346395493,-7.024089813232421,6.866416454315186
1746551322.6167033,-0.11082270741462708,-7.00432252883911,6.843385696411134
1746551322.717079,-0.12777484953403473,-7.011331558227538,6.856313705444337
1746551322.8080125,-0.09174978733062744,-7.016504287719726,6.8520245552063
1746551322.9296846,-0.11327705532312393,-7.007042407989501,6.848644256591798
1746551322.9997263,-0.10908776521682739,-7.0012240409851065,6.867067813873292
1746551323.0971177,-0.11259457468986511,-6.9934444427490225,6.862361431121827
1746551323.207426,-0.10622994601726532,-7.008407115936278,6.849859237670899
1746551323.2913845,-0.11133144050836563,-7.011244773864745,6.867949008941651
1746551323.397546,-0.12450291216373444,-7.009503364562987,6.840635299682618
1746551323.4808288,-0.11646899580955505,-7.0116000175476065,6.858591079711915
1746551323.576382,-0.10691061615943909,-7.010540008544921,6.860667228698731
1746551323.688798,-0.12160753458738327,-7.003728389739989,6.851870059967042
1746551323.7675762,-0.12161442637443542,-7.01108694076538,6.860732078552247
1746551323.8737028,-0.11752760410308838,-7.0085506439208975,6.869741439819337
1746551323.9584827,-0.1084938496351242,-7.0044565200805655,6.832811832427979
1746551324.0561743,-0.11140059679746628,-7.002418994903564,6.861158847808839
1746551324.1617377,-0.10861600190401077,-6.999694824218749,6.864250659942628
1746551324.249455,-0.10881400853395462,-6.993688106536864,6.856244087219239
1746551324.3621917,-0.11927928030490875,-7.010704517364501,6.872401714324952
1746551324.4407694,-0.10385873168706894,-7.001035690307616,6.86760425567627
1746551324.5382407,-0.10787881910800934,-6.999621868133544,6.860410690307618
1746551324.6488473,-0.12275717407464981,-7.008668899536132,6.8552002906799325
1746551324.7290094,-0.10630208253860474,-6.983932018280028,6.855344772338868
1746551324.8444963,-0.1114342138171196,-7.001226902008056,6.858159065246583
1746551324.9205651,-0.10907182097434998,-7.005274295806884,6.871839523315431
1746551325.0169413,-0.12245912104845047,-7.005355834960937,6.870391368865968
1746551325.1187015,-0.1102006584405899,-7.007310390472411,6.854433536529542
1746551325.2087796,-0.13194428384304047,-6.9957823753356925,6.83257818222046
1746551325.330489,-0.11299928277730942,-7.0180110931396475,6.849814414978028
1746551325.4019246,-0.11245622485876083,-7.002799987792968,6.847686767578126
1746551325.4967442,-0.11032481491565704,-7.007274150848388,6.855354309082032
1746551325.6183403,-0.10561147332191467,-7.011600494384765,6.857563495635987
1746551325.70476,-0.12299887090921402,-6.995169162750243,6.877403259277345
1746551325.7956395,-0.11826535314321518,-7.049262523651122,6.859274864196778
1746551325.8818932,-0.12072926759719849,-7.022317886352538,6.843912601470948
1746551325.97601,-0.1263105571269989,-7.005085468292235,6.876502990722657
1746551326.0810156,-0.10883878916501999,-7.013798713684081,6.845654964447022
1746551326.1725695,-0.11933742463588715,-7.01610231399536,6.848138332366944
1746551326.2823334,-0.13173028826713562,-7.028825283050536,6.890503406524659
1746551326.3627334,-0.1136079654097557,-7.014866828918456,6.8548574447631845
1746551326.4570932,-0.10288029164075851,-7.023492813110351,6.867012023925782
1746551326.562784,-0.12088070064783096,-7.018682003021239,6.865496635437013
1746551326.6554666,-0.11799200624227524,-7.020851612091064,6.860019207000733
1746551326.7544324,-0.1029001772403717,-7.01872968673706,6.857624053955079
1746551326.862676,-0.11032496392726898,-7.015066146850585,6.859041213989259
1746551326.93667,-0.12546780705451965,-7.014505863189696,6.862119674682618
1746551327.0428674,-0.1080394834280014,-7.010508060455321,6.856706142425538
1746551327.131125,-0.11303052306175232,-7.011681556701659,6.843329906463624
1746551327.2527304,-0.11673141270875931,-7.020105838775634,6.84899663925171
1746551327.3213594,-0.09570521116256714,-7.017357826232909,6.864072799682618
1746551327.419016,-0.10511580109596252,-6.931427001953124,6.841133117675782
1746551327.5273416,-0.12616939842700958,-7.037156105041503,6.835345745086671
1746551327.6091712,-0.1146436557173729,-7.006997108459472,6.866534709930421
1746551327.7218583,-0.10800925642251968,-7.016488075256347,6.860900402069093
1746551327.8074062,-0.10677371174097061,-7.014629840850829,6.846553802490235
1746551327.8984125,-0.12137831747531891,-7.018556118011474,6.853404045104981
1746551328.0100057,-0.08401927351951599,-7.014108180999755,6.8559303283691415
1746551328.0899982,-0.12483281642198563,-7.0075597763061515,6.852041244506837
1746551328.2100115,-0.1254759430885315,-7.013100147247314,6.857094287872315
1746551328.2832403,-0.11630076169967651,-7.01706838607788,6.852981090545655
1746551328.3798459,-0.1120576336979866,-7.017270565032958,6.851409912109376
1746551328.4818974,-0.12746645510196686,-7.026518821716308,6.8644776344299325
1746551328.5703115,-0.11884824931621552,-7.029057025909423,6.853833675384522
1746551328.6821504,-0.11523769050836563,-7.020189762115478,6.8465542793273935
1746551328.762945,-0.10276206582784653,-7.010811328887939,6.86292314529419
1746551328.861023,-0.11181451380252838,-7.035709381103515,6.848474979400636
1746551328.962841,-0.11030708998441696,-7.019521236419677,6.846636772155763
1746551329.0528455,-0.10778158903121948,-7.019044876098632,6.85782289505005
1746551329.162124,-0.10916528105735779,-7.021039009094237,6.8480863571167
1746551329.2431986,-0.11485305428504944,-7.021409511566161,6.8528470993042
1746551329.3400135,-0.10712598264217377,-7.026280879974364,6.853150367736817
1746551329.4498048,-0.11854275315999985,-7.025725841522216,6.851704120635987
1746551329.5305128,-0.11760234832763672,-7.019300937652587,6.862722873687745
1746551329.649457,-0.11321697384119034,-7.012989044189452,6.849652767181397
1746551329.7256339,-0.10689479112625122,-7.030496597290038,6.8581604957580575
1746551329.8198936,-0.1194564625620842,-7.016798496246337,6.863952159881593
1746551329.9224212,-0.10817492753267288,-7.011755943298339,6.844780445098878
1746551330.0131195,-0.12194794416427612,-7.027058601379394,6.856848716735841
1746551330.12584,-0.11009647697210312,-7.030969619750976,6.856432437896729
1746551330.2066448,-0.1226070448756218,-7.035614490509032,6.861083984375001
1746551330.3014483,-0.12400079518556595,-7.0241613388061515,6.847975254058839
1746551330.416271,-0.11422960460186005,-6.994449615478515,6.869745731353761
1746551330.4929025,-0.09967423975467682,-7.015129566192626,6.858098506927491
1746551330.6064413,-0.11829455196857452,-7.017696857452392,6.8624234199523935
1746551330.6910763,-0.11198928952217102,-7.028398513793944,6.857153892517091
1746551330.780507,-0.1109713613986969,-7.012282848358153,6.8485779762268075
1746551330.8834493,-0.10452165454626083,-7.011929035186767,6.866291522979737
1746551330.9724963,-0.11650367081165314,-7.031489849090575,6.845701694488526
1746551331.0838213,-0.10059396177530289,-7.018531322479247,6.847256660461427
1746551331.1673825,-0.11280504614114761,-7.024328708648681,6.8581280708313
1746551331.2627022,-0.10652220249176025,-7.030043601989745,6.847438335418702
1746551331.3639176,-0.11175866425037384,-7.009248733520507,6.85364866256714
1746551331.4541125,-0.12049230933189392,-7.039708137512206,6.844574928283692
1746551331.5586994,-0.10729158669710159,-7.034924507141112,6.865682601928712
1746551331.6459758,-0.10943173617124557,-7.046002388000487,6.856938362121583
1746551331.7411575,-0.11807743459939957,-7.033843517303466,6.850532054901124
1746551331.8470418,-0.13532008230686188,-7.038289070129394,6.858902454376222
1746551331.9330423,-0.10072930157184601,-7.037242889404296,6.847848415374757
1746551332.0486157,-0.1065116822719574,-7.026290416717528,6.857980251312257
1746551332.1250217,-0.11489365249872208,-7.041943073272704,6.858267307281495
1746551332.2211852,-0.11084772646427155,-7.022145748138427,6.859479904174806
1746551332.3254344,-0.1071762964129448,-7.029786586761474,6.848295211791993
1746551332.4128292,-0.0994836762547493,-7.037820816040038,6.867185592651368
1746551332.5242286,-0.12298022210597992,-7.022939682006835,6.852224349975587
1746551332.6047406,-0.11821085959672928,-7.027639865875243,6.861184597015382
1746551332.7009804,-0.11284960061311722,-7.0182466506958,6.864463806152345
1746551332.803491,-0.10422252118587494,-7.026206493377685,6.864983081817628
1746551332.8931048,-0.11319266259670258,-7.035130977630614,6.858802318572999
1746551333.0088618,-0.11734940111637115,-7.034534454345702,6.8433575630188
1746551333.0875916,-0.1217997819185257,-7.005473613739013,6.850440025329591
1746551333.1807158,-0.08255644142627716,-7.025934696197509,6.85210418701172
1746551333.2842479,-0.13206163048744202,-7.024395465850829,6.86715316772461
1746551333.3738177,-0.12083803117275238,-7.033891677856444,6.847787857055665
1746551333.4794185,-0.10756104439496994,-7.0035619735717765,6.859829902648927
1746551333.565824,-0.1069333627820015,-7.028674602508544,6.870354652404786
1746551333.6618803,-0.10977467149496078,-7.018452644348144,6.859564781188966
1746551333.7642064,-0.10459040850400925,-7.027851581573485,6.852452278137208
1746551333.8538868,-0.12285419553518295,-7.029643058776855,6.853793144226075
1746551333.9651418,-0.0972525104880333,-7.036893844604491,6.864739894866944
1746551334.0468626,-0.11349036544561386,-7.019930362701415,6.861297607421876
1746551334.1428013,-0.11611641943454742,-7.035288333892821,6.8516931533813485
1746551334.2468066,-0.12898479402065277,-7.029474735260009,6.850489616394044
1746551334.3354306,-0.098092220723629,-7.01740264892578,6.8468055725097665
1746551334.4425066,-0.10549574345350266,-7.0413241386413565,6.879481792449952
1746551334.527477,-0.12830489873886108,-7.027524948120116,6.851615428924561
1746551334.6240914,-0.11617819219827652,-7.029531002044677,6.871260166168214
1746551334.7271562,-0.10815489292144775,-6.999341011047362,6.856015205383302
1746551334.8145623,-0.12054215371608734,-7.014554977416991,6.8473806381225595
1746551334.9303772,-0.10975062102079391,-7.025613784790038,6.8493056297302255
1746551335.0062509,-0.11754069477319717,-7.021317958831786,6.848052978515626
1746551335.1035993,-0.09229762107133865,-7.018481731414794,6.83743715286255
1746551335.210218,-0.09690394252538681,-7.072092056274413,6.895612239837647
1746551335.2946422,-0.13472051918506622,-7.022679805755614,6.868000507354737
1746551335.4049199,-0.10420805960893631,-7.018789768218993,6.85146188735962
1746551335.486492,-0.09630654752254486,-7.038355350494384,6.867500305175782
1746551335.5845692,-0.11980791389942169,-7.018094062805175,6.8549466133117685
1746551335.6880097,-0.11822879314422607,-6.997410774230956,6.832262992858888
1746551335.7746258,-0.09448697417974472,-7.028910636901855,6.86217212677002
1746551335.8856995,-0.13374415040016174,-7.026977062225341,6.869554042816163
1746551335.9667206,-0.11198289692401886,-7.01141595840454,6.849366188049317
1746551336.0625556,-0.13673199713230133,-7.013977527618407,6.870190620422364
1746551336.167822,-0.12244147807359695,-7.0191683769226065,6.850817680358888
1746551336.2557049,-0.10363474488258362,-7.009068965911864,6.845556259155274
1746551336.360549,-0.11337470263242722,-7.018798828124999,6.852338314056397
1746551336.4475503,-0.11185421794652939,-7.0010900497436515,6.8555240631103525
1746551336.5448084,-0.1142667606472969,-7.016712188720702,6.865925312042237
1746551336.6526775,-0.11915276944637299,-6.986701488494872,6.853089332580567
1746551336.7353492,-0.1184450313448906,-7.013098239898681,6.857889652252198
1746551336.8511612,-0.12074711173772812,-7.087297439575194,6.944610595703126
1746551336.9273062,-0.12106502056121826,-7.015618324279784,6.79460096359253
1746551337.023652,-0.07133974134922028,-6.993325233459472,6.853515625000001
1746551337.1290095,-0.06477852910757065,-6.961966037750243,6.796336174011231
1746551337.2151887,-0.14485310018062592,-7.042362689971923,6.837761402130128
1746551337.32537,-0.12632417678833008,-6.925245285034179,6.745309352874757
1746551337.4071937,-0.11679985374212265,-7.02931261062622,6.8716421127319345
1746551337.5033135,-0.10876350104808807,-7.015727519989013,6.884421348571778
1746551337.612153,-0.14136917889118195,-7.011854171752929,6.868883609771729
1746551337.6963587,-0.10221214592456818,-7.003230571746825,6.862677574157716
1746551337.8074665,-0.11696799844503403,-7.0165719985961905,6.869136810302735
1746551337.888313,-0.021081451326608658,-6.9434118270874015,6.843826293945313
1746551337.9865007,-0.10006333142518997,-7.0877623558044425,6.913703918457032
1746551338.0888247,-0.10671737790107727,-7.039604187011718,6.862703323364259
1746551338.1764505,-0.1398908495903015,-7.005935192108153,6.869456291198731
1746551338.281986,-0.11340399086475372,-7.026372432708739,6.835731983184815
1746551338.3685095,-0.14040210843086243,-7.002948284149169,6.869978904724122
1746551338.4643543,-0.052645258605480194,-7.059272289276122,6.90176820755005
1746551338.5696993,-0.12459434568881989,-6.952217578887939,6.828857421875001
1746551338.6613448,-0.12320485711097717,-7.067832469940185,6.830000400543214
1746551338.7677467,-0.14431026577949524,-6.971552371978759,6.866153240203858
1746551338.852233,-0.09207449108362198,-6.9875192642211905,6.85258436203003
1746551338.9474666,-0.14768673479557037,-7.023545265197753,6.868847370147706
1746551339.049414,-0.09698061645030975,-7.041470527648925,6.83904266357422
1746551339.13969,-0.11490720510482788,-6.999082565307616,6.863730430603028
1746551339.2477834,-0.11141055822372437,-6.949960708618163,6.809397220611573
1746551339.3290017,-0.07998465746641159,-7.0787010192871085,6.890253543853761
1746551339.4253273,-0.09718569368124008,-7.019094944000243,6.867759704589845
1746551339.5308933,-0.11909662932157516,-7.035058021545409,6.875840663909913
1746551339.6183436,-0.13474483788013458,-7.035315513610839,6.856112957000733
1746551339.734188,-0.131950244307518,-7.020403861999511,6.869662761688233
1746551339.8102689,-0.10412877053022385,-7.019121646881103,6.864862918853761
1746551339.9063988,-0.12971307337284088,-7.045161247253417,6.828215122222901
1746551340.0114744,-0.08681493252515793,-6.986218929290771,6.838720321655274
1746551340.0981762,-0.06626055389642715,-7.036640644073485,6.821166515350343
1746551340.2097445,-0.163001149892807,-7.002869129180907,6.874278068542481
1746551340.2901254,-0.10194499790668488,-6.955468177795409,6.850603580474854
1746551340.3881192,-0.10292810201644897,-6.919524192810058,6.853341579437257
1746551340.498372,-0.11860672384500504,-6.9913339614868155,6.791253566741944
1746551340.5797837,-0.1450788825750351,-7.04658555984497,6.873141288757325
1746551340.6946368,-0.09247477352619171,-7.0213327407836905,6.84376621246338
1746551340.7710874,-0.09299533069133759,-7.010425567626952,6.8617582321167
1746551340.867669,-0.08265004307031631,-7.014248847961425,6.851696014404298
1746551340.9725251,-0.12350527197122574,-7.030115127563476,6.8444461822509775
1746551341.0604537,-0.08590534329414368,-7.019056320190429,6.847789764404298
1746551341.1652026,-0.12311896681785583,-7.027392387390136,6.89964771270752
1746551341.2520216,-0.10418954491615295,-7.02417230606079,6.855134010314942
1746551341.3481781,-0.12544742226600647,-7.01749038696289,6.868936061859132
1746551341.4504974,-0.10650091618299484,-7.024438858032226,6.859334468841554
1746551341.5409012,-0.1253553181886673,-7.020829677581786,6.8622708320617685
1746551341.655632,-0.10716479271650314,-7.031055450439452,6.84269142150879
1746551341.7308967,-0.11914331465959549,-7.02814483642578,6.859569549560548
1746551341.8292196,-0.09714766591787338,-7.038279056549071,6.847997665405274
1746551341.931513,-0.1224554032087326,-7.040381431579589,6.876131534576417
1746551342.0211353,-0.1109255999326706,-7.020154476165771,6.8365774154663095
1746551342.1311302,-0.11898155510425568,-7.018993854522704,6.852828025817872
1746551342.2144527,-0.10520388931035995,-7.030039310455321,6.849114894866944
1746551342.3102376,-0.1054830551147461,-7.022453784942626,6.855347633361817
1746551342.4126303,-0.10839547216892242,-7.026690483093261,6.851248741149903
1746551342.5022786,-0.1340140402317047,-7.018543243408202,6.856986045837403
1746551342.6146948,-0.1012282595038414,-7.035108566284179,6.835144996643067
1746551342.694108,-0.11490365862846375,-7.024577617645263,6.877662181854249
1746551342.7901762,-0.10305580496788025,-7.01514720916748,6.843049049377442
1746551342.8987083,-0.1275019645690918,-7.017311573028564,6.845625400543214
1746551342.9801385,-0.10404995083808899,-7.020654678344726,6.8714685440063485
1746551343.085642,-0.12366615235805511,-7.020949840545653,6.856966495513917
1746551343.172782,-0.1063384935259819,-7.008269786834716,6.849370479583741
1746551343.2688851,-0.1257680058479309,-7.02648639678955,6.852738857269288
1746551343.3745759,-0.12977996468544006,-7.008971214294433,6.852581501007081
1746551343.4608793,-0.10606303811073303,-7.039405822753905,6.844127655029298
1746551343.5717828,-0.10425569862127304,-7.032727241516112,6.839416503906251
1746551343.6536336,-0.10312885791063309,-7.010270595550536,6.869575023651124
1746551343.7499168,-0.0947524905204773,-7.019611835479735,6.861855983734132
1746551343.8522525,-0.2090320587158203,-6.943433284759521,6.7819766998291025
1746551343.9428658,-0.06613010168075562,-6.985592365264892,6.85457468032837
1746551344.0471869,-0.09113489091396332,-7.003907680511474,6.896824836730958
1746551344.1348343,-0.15486322343349457,-7.019629955291747,6.830183029174806
1746551344.2312753,-0.1282150149345398,-7.021106719970702,6.859950542449952
1746551344.333477,-0.11448594927787781,-7.017074108123778,6.820510864257813
1746551344.4228911,-0.09940537065267563,-6.952199935913085,6.825476646423341
1746551344.5386941,-0.07502734661102295,-7.031327724456786,6.880144119262696
1746551344.6140988,-0.12188918888568878,-7.007893085479735,6.834020614624024
1746551344.7098968,-0.12084875255823135,-7.02574062347412,6.862051010131837
1746551344.8203266,-0.12428947538137436,-7.007064819335937,6.86171579360962
1746551344.901738,-0.11389437317848206,-6.994974613189696,6.871378898620606
1746551345.011796,-0.11944150924682617,-7.015551090240478,6.861838817596436
1746551345.0937607,-0.09864874929189682,-7.009742259979247,6.8627991676330575
1746551345.191074,-0.10594098269939423,-7.022628784179687,6.847304344177247
1746551345.2985046,-0.09343656897544861,-7.018512725830077,6.839202404022218
1746551345.3846362,-0.08494540303945541,-6.973114013671874,6.8852624893188485
1746551345.494211,-0.10109347850084305,-7.089807510375976,6.90940809249878
1746551345.57498,-0.1218472272157669,-7.026279926300048,6.892498970031739
1746551345.6708431,-0.14801256358623505,-7.029501438140868,6.862659454345704
1746551345.773787,-0.09289956837892532,-7.076274394989013,6.802415370941163
1746551345.863044,-0.141167551279068,-7.025014400482177,6.787133693695069
1746551345.9677606,-0.13821463286876678,-7.049288272857665,6.832377433776856
1746551346.0560355,-0.07710874080657959,-6.995460033416747,6.860549449920655
1746551346.151853,-0.09432877600193024,-7.028129577636718,6.8368921279907235
1746551346.2543747,-0.13695602118968964,-7.018301010131835,6.8726224899292
1746551346.3437033,-0.1119956523180008,-7.059250831604003,6.8697547912597665
1746551346.4555337,-0.1166122704744339,-6.990375041961669,6.851997375488282
1746551346.536636,-0.11666624248027802,-7.039582729339599,6.882596969604493
1746551346.6329544,-0.11137974262237549,-6.999585628509521,6.8385915756225595
1746551346.7353024,-0.11436231434345245,-7.044386863708495,6.842827796936036
1746551346.8247867,-0.06548107415437698,-6.978158473968505,6.858467102050782
1746551346.934766,-0.1326233148574829,-7.062494277954101,6.896459579467774
1746551347.0179117,-0.1141420528292656,-6.931143283843993,6.854565620422364
1746551347.113783,-0.11332091689109802,-7.01872968673706,6.864641189575196
1746551347.2169433,-0.08485890924930573,-6.975349903106689,6.8243398666381845
1746551347.3042996,-0.1098865494132042,-7.013107776641845,6.836225509643556
1746551347.4193203,-0.12265784293413162,-7.056904315948485,6.8460755348205575
1746551347.4955475,-0.12486910074949265,-6.968785285949706,6.850370883941651
1746551347.5921724,-0.09689454734325409,-7.021560668945312,6.842816829681397
1746551347.7026641,-0.1715807318687439,-6.9372801780700675,6.82981300354004
1746551347.7850835,-0.15399201214313507,-7.075734615325927,6.879711151123048
1746551347.890479,-0.10923472046852112,-7.0101900100708,6.875681400299073
1746551347.976709,-0.11063183099031448,-7.023412227630614,6.852129936218263
1746551348.072724,-0.10488201677799225,-7.022851943969726,6.861176013946534
1746551348.178212,-0.09933554381132126,-7.025369644165038,6.846020698547364
1746551348.2650182,-0.10272926837205887,-7.024505615234374,6.844577312469483
1746551348.3758898,-0.08430846780538559,-7.001248836517333,6.833217144012452
1746551348.459065,-0.10326694697141647,-7.010956287384032,6.821070194244386
1746551348.5570006,-0.12281949818134308,-7.013506412506103,6.850263118743897
1746551348.6576183,-0.15038026869297028,-7.002271175384521,6.885545730590821
1746551348.7526045,-0.10790226608514786,-7.009399414062499,6.865312576293946
1746551348.9077845,-0.10487831383943558,-7.015550613403319,6.861832141876222
