timestamp,ax,ay,az
1746702487.2109373,-2.46262788772583,-9.146727561950682,8.13762950897217
1746702487.2488947,-3.057769298553467,-7.423578262329101,7.518756389617921
1746702487.2770188,-2.4085068702697754,-5.459439277648925,6.047245979309083
1746702487.3316965,-2.250722646713257,-5.3502230644226065,6.9306020736694345
1746702487.424825,-1.8728160858154297,-5.207952976226806,8.374495506286621
1746702487.552478,-1.3328335285186768,-4.430788040161132,6.8930091857910165
1746702487.6134455,-1.4910553693771362,-6.06075620651245,8.244140625
1746702487.8726492,-1.0087634325027466,-6.658058166503905,9.257163047790527
1746702487.8947587,-0.8347615599632263,-6.47619342803955,9.462599754333496
1746702487.9197571,-0.712345540523529,-5.599105834960937,8.969408988952637
1746702487.9979048,-0.9489539861679077,-4.934464454650878,7.647871494293214
1746702488.0694585,-1.836908221244812,-6.086904048919677,8.346778869628906
1746702488.16503,-1.6844031810760498,-3.941879987716674,6.482285499572755
1746702488.2561128,-1.5197073221206665,-5.467149257659911,6.627398967742921
1746702488.3452406,-1.5746643543243408,-5.201637268066405,5.506381034851075
1746702488.4633145,-3.1124918460845947,-5.49995231628418,2.1009576320648202
1746702488.550428,-1.4597485065460205,-7.8299546241760245,4.807727336883546
1746702488.8692286,-1.4778532981872559,-11.035935401916502,12.034729957580568
1746702488.92138,-2.6620421409606934,-10.996745109558104,14.439136505126955
1746702488.9466784,-1.552935242652893,-12.303804397583006,10.590159416198732
1746702488.967535,-2.1512131690979004,-6.986804008483886,8.781915664672852
1746702488.993689,-2.1352782249450684,-6.200230598449706,8.824483871459961
1746702489.117815,-2.5018770694732666,-6.896258354187011,8.086878776550293
1746702489.1778696,-1.2869000434875488,-12.481940269470213,11.335605621337892
1746702489.273416,-3.1391806602478027,-12.805861473083494,11.16390132904053
1746702489.3814147,-2.3579800128936768,-11.258543968200682,13.336902618408205
1746702489.4536555,-1.8154606819152832,-7.698103427886962,9.66078853607178
1746702489.5714853,-2.3544845581054688,-8.713757514953613,4.71942949295044
1746702489.654187,-1.354492425918579,-8.698698997497557,9.240235328674318
1746702489.9209375,-1.4895590543746948,-7.2045884132385245,8.319733619689941
1746702489.9629943,-2.4958126544952393,-7.206896781921386,8.78463077545166
1746702490.0004826,-2.0758063793182373,-9.652341842651365,9.687572479248049
1746702490.0246637,-2.0145297050476074,-9.627856254577635,9.237329483032228
1746702490.1149883,-3.633758068084717,-11.507933616638182,11.931488990783693
1746702490.1931112,-1.6317636966705322,-7.383258819580077,4.563056468963624
1746702490.3086467,-2.5334792137145996,-9.469063758850096,10.462440490722658
1746702490.3819506,-3.513828992843628,-9.385447502136229,9.99784851074219
1746702490.4781408,-3.6681530475616455,-10.056344032287596,9.549007415771486
1746702490.5627484,-3.0503368377685547,-12.05948734283447,10.75735664367676
1746702490.6549428,-2.7344768047332764,-8.08526039123535,7.91087818145752
1746702490.766142,-1.5702682733535767,-10.448573112487791,8.805554389953615
1746702490.840827,-2.3666956424713135,-5.4439120292663565,5.943834781646729
1746702490.9407349,-2.189624547958374,-5.782721519470214,6.2722806930542
1746702491.023574,-1.79213547706604,-6.860945224761962,6.663073062896729
1746702491.1156225,-2.443906307220459,-6.34737730026245,7.456984996795655
1746702491.2388363,-2.048218250274658,-5.798210144042968,6.503087997436524
1746702491.3089616,-2.32916259765625,-6.364496707916259,6.706342220306397
1746702491.4026012,-2.6271798610687256,-6.693545341491698,6.575624942779542
1746702491.4844294,-2.4512388706207275,-9.155856132507322,8.716795921325685
1746702491.5780516,-2.5907182693481445,-9.611231803894041,8.932193756103517
1746702491.7152476,-2.2847042083740234,-7.94545030593872,7.738518238067628
1746702491.7633507,-2.3249411582946777,-6.5187349319458,5.990555286407472
1746702491.8578117,-1.8753119707107544,-7.2776780128478995,6.4971680641174325
1746702491.9468243,-1.52230966091156,-7.2064852714538565,7.4377503395080575
1746702492.0399551,-1.8882724046707153,-7.5969481468200675,7.101109981536866
1746702492.1632917,-1.7415597438812256,-7.68915033340454,7.3076210021972665
1746702492.2346177,-1.9596408605575562,-7.537104606628417,7.02745819091797
1746702492.3226986,-1.8885865211486816,-7.490618705749511,7.3576297760009775
1746702492.4177427,-2.071579933166504,-6.713001251220702,6.774688720703126
1746702492.5039258,-1.8911445140838623,-6.712048053741454,6.423770427703858
1746702492.6146557,-1.8862502574920654,-5.835902214050292,5.79863739013672
1746702492.692718,-1.9138004779815674,-5.688886642456054,5.773223876953126
1746702492.7807903,-2.023749351501465,-5.369674205780028,5.3995327949523935
1746702492.8835223,-2.0126328468322754,-6.531444549560546,6.005847454071046
1746702492.9638345,-2.1970741748809814,-6.465797424316405,5.83883285522461
1746702493.0740979,-2.1379969120025635,-7.147627353668212,6.114723682403565
1746702493.1576285,-2.280405282974243,-6.109545230865478,6.073808670043946
1746702493.2473752,-2.2379813194274902,-6.123837947845458,5.5576233863830575
1746702493.3453948,-2.444946765899658,-6.975465774536132,6.4316043853759775
1746702493.426701,-2.6179845333099365,-9.158138275146484,6.966998577117921
1746702493.5367594,-2.7350120544433594,-8.516010284423828,6.748317241668702
1746702493.6117513,-2.6498682498931885,-7.88846731185913,6.444968223571778
1746702493.7098906,-2.790882110595703,-8.690814018249512,7.19109344482422
1746702493.7993233,-2.7166647911071777,-8.808301925659178,7.478742122650147
1746702493.8872817,-2.469966173171997,-8.105563163757324,6.2533349990844735
1746702493.9998176,-2.555306911468506,-9.106550216674805,7.099464893341065
1746702494.0794451,-2.378495693206787,-9.27392578125,7.010962486267091
1746702494.192962,-2.6119256019592285,-10.445945739746092,8.010873794555666
1746702494.2580621,-2.9368863105773926,-10.177848815917967,7.91605043411255
1746702494.3466468,-3.45798397064209,-10.581806182861326,8.654957771301271
1746702494.4576628,-3.8278887271881104,-10.069055557250975,8.464854240417482
1746702494.534322,-3.928196668624878,-9.337926864624022,8.07394599914551
1746702494.631469,-3.863119125366211,-10.388586997985838,9.326797485351564
1746702494.7155464,-3.580601930618286,-10.054595947265623,10.146050453186037
1746702494.807699,-3.4361085891723633,-11.049463272094725,10.906512260437013
1746702494.9301329,-2.9572696685791016,-17.297910690307614,16.055603027343754
1746702494.9952009,-3.1491751670837402,-13.063150405883787,12.167881965637209
1746702495.1007602,-3.409090995788574,-10.913881301879881,10.403639793395998
1746702495.1772645,-3.344651937484741,-7.862608909606933,7.615812301635743
1746702495.2784894,-3.351970672607422,-9.311475753784178,9.323697090148928
1746702495.3826509,-3.438002586364746,-8.3693790435791,8.936796188354494
1746702495.454036,-2.6651322841644287,-8.30592632293701,8.12647342681885
1746702495.548786,-3.1390018463134766,-6.940711975097655,7.528522968292237
1746702495.6419382,-2.623439073562622,-6.686795234680175,7.259364604949952
1746702495.735943,-2.339493989944458,-7.6665868759155265,7.612562656402589
1746702495.8520005,-2.515897512435913,-6.2620601654052725,7.486709117889405
1746702495.9272892,-2.487025260925293,-7.572148799896239,8.06715488433838
1746702496.020113,-2.3025527000427246,-8.88424777984619,8.311764717102053
1746702496.2029421,-1.4840494394302368,-8.726285934448242,7.037978172302247
1746702496.2175438,-1.9179320335388184,-11.134461402893065,10.229156494140627
1746702496.3213139,-1.4239107370376587,-10.442233085632322,8.483498573303224
1746702496.3778932,-1.8036092519760132,-8.022592544555664,5.46367645263672
1746702496.4715414,-1.5479921102523804,-6.9442734718322745,7.206566333770753
1746702496.5611591,-1.189631462097168,-7.491693496704101,6.319221019744874
1746702496.6621041,-1.4636670351028442,-6.694619178771972,5.88077211380005
1746702496.766594,-1.7414296865463257,-5.993820190429687,6.012067317962647
1746702496.8402646,-1.380402684211731,-6.363220214843749,6.388469696044923
1746702496.9418597,-0.9269668459892273,-6.750940322875976,5.956138134002686
1746702497.0241516,-0.6962279081344604,-5.802976131439208,6.713765144348145
1746702497.180232,0.518415093421936,-6.184776782989501,5.984140872955323
1746702497.2495036,-0.8564606308937073,-4.159695625305175,7.299734115600587
1746702497.3138857,-0.19769787788391113,-5.986343383789062,4.407588958740235
1746702497.4067543,0.19363078474998474,-7.810901641845702,6.54982089996338
1746702497.486979,-0.7387552857398987,-7.343206882476806,6.939536094665528
1746702497.5789907,-1.4987982511520386,-6.805097579956054,5.046710014343263
1746702497.690827,-1.0269564390182495,-5.142593383789062,4.083569049835206
1746702497.7629955,-0.01760859414935112,-5.359601497650146,4.251160144805909
1746702497.8586144,-3.1286349296569824,-4.462725162506103,10.108240127563477
1746702497.9470415,-0.3928295373916626,-5.431057929992675,6.010037422180177
1746702498.0405622,-0.09199360013008118,-7.287464141845702,6.401184558868409
1746702498.1521456,-0.4136989414691925,-4.627439022064208,6.798262596130372
1746702498.233004,0.17845140397548676,-6.092069149017333,6.66515064239502
1746702498.3629966,0.14443986117839813,-6.032676696777343,7.488752841949464
1746702498.4296653,-0.8857686519622803,-6.736101627349853,8.902721405029297
1746702498.5077069,-1.179671049118042,-9.458118438720703,7.17168951034546
1746702498.6242433,-0.5227011442184448,-8.279334068298338,7.811291217803956
1746702498.8686314,0.17135095596313477,-5.070194721221923,6.276982784271241
1746702498.9106798,-0.5662798285484314,-7.852446556091308,7.7439050674438485
1746702498.9793525,-1.0081305503845215,-6.275307178497314,8.889287948608398
1746702499.0158243,-0.9327192902565002,-6.8435630798339835,6.580031871795655
1746702499.0843046,-0.4597703218460083,-8.912383079528807,7.584703922271729
1746702499.1484742,-0.1374303251504898,-9.445374488830565,8.279463768005373
1746702499.2497263,-0.15338607132434845,-9.656149864196776,8.062534332275392
1746702499.3337517,0.10267311334609985,-9.126203536987305,6.522128582000733
1746702499.4730115,-0.21165862679481506,-5.9464111328125,3.572519779205323
1746702499.5441213,-0.8581132888793945,-6.460283279418944,10.636893272399902
1746702499.6160202,-1.3129823207855225,-7.248505115509032,6.421246051788331
1746702499.710817,-1.6741644144058228,-8.874302864074705,11.63909149169922
1746702499.7934954,-0.9166459441184998,-7.352913379669189,6.326255798339845
1746702499.885698,-0.7295438051223755,-5.7511558532714835,8.757292747497559
1746702499.9996772,-0.6559555530548096,-8.045017242431639,8.032844543457033
1746702500.0690367,-1.515647053718567,-7.189725875854491,9.982038497924805
1746702500.1632717,-0.7307667136192322,-8.093650817871092,7.763339519500733
1746702500.2552905,-0.19657167792320251,-9.45150852203369,10.268293380737306
1746702500.3489535,-1.7856571674346924,-11.523473739624022,8.155139923095705
1746702500.4599373,-0.8103443384170532,-6.99692153930664,9.781098365783691
1746702500.5331059,-2.947856903076172,-8.746331214904785,7.107849597930909
1746702500.6353357,-0.05150722712278366,-3.498094320297241,1.4718136787414555
1746702500.7266397,-1.6373202800750732,-8.937195777893066,7.13173007965088
1746702500.8164983,-2.0486044883728027,-11.63773727416992,8.426822662353517
1746702500.9293342,-1.7583900690078735,-6.387154102325439,8.170068740844727
1746702500.9939768,-3.1491518020629883,-6.9814672470092765,10.644051551818848
1746702501.086819,-0.8759121298789978,-8.593843460083006,7.654041767120362
1746702501.1769028,0.8945484757423401,-6.7781429290771475,6.521047592163087
1746702501.2702763,-0.5205613374710083,-5.321698188781737,10.803153991699219
1746702501.3817003,-2.1044459342956543,-5.7911128997802725,8.706488609313965
1746702501.4563894,-0.14379428327083588,-7.408994674682616,7.840779781341554
1746702501.5521438,0.1664721816778183,-10.20780563354492,7.795569419860841
1746702501.6389678,0.24434298276901245,-5.13072919845581,6.6360135078430185
1746702501.7318358,0.42641890048980713,-3.67873454093933,8.550888061523438
1746702501.8477404,-2.4208712577819824,-6.673354625701903,6.607964038848878
1746702501.9203155,-1.7115561962127686,-11.601402282714842,12.62407684326172
1746702502.0225372,-1.3806675672531128,-13.587113380432127,10.536307334899904
1746702502.1079695,-1.100417971611023,-13.054024696350096,9.22024440765381
1746702502.2466414,0.42331117391586304,-14.528120040893553,11.635341644287111
1746702502.3061116,-0.11972346901893616,-12.618605613708494,7.3357677459716815
1746702502.3772888,0.5627013444900513,-12.766249656677246,6.8785886764526385
1746702502.4736888,0.9138380885124207,-8.345260620117188,3.7112061977386483
1746702502.5628479,0.5612689256668091,-10.619007110595703,5.905097484588624
1746702502.6557794,1.0627073049545288,-6.185518741607665,3.8070833683013925
1746702502.7672794,1.0909897089004517,-5.199144363403319,4.689403533935548
1746702502.8385997,0.7667669057846069,-7.814772129058837,7.126242637634278
1746702502.9423087,-0.03704870119690895,-5.7650156021118155,6.359121799468995
1746702503.025104,-0.4610684812068939,-2.8696818351745597,5.8174943923950195
1746702503.1183429,0.6025922298431396,-0.2361033260822289,5.9968438148498535
1746702503.2293077,-0.46876946091651917,-5.330880641937255,7.439658164978028
1746702503.3056817,0.4304419457912445,-6.238316059112548,6.747160434722901
1746702503.426781,0.4721149802207947,-7.248217582702636,7.221308708190919
1746702503.4871962,0.8623655438423157,-8.047860145568848,5.2503604888916025
1746702503.5782516,0.6482819318771362,-9.752207756042479,8.207971572875978
1746702503.6894906,0.20156168937683105,-7.750133514404296,6.704925060272218
1746702503.763806,0.6635765433311462,-7.5597505569458,4.456113815307618
1746702503.856773,0.6778525710105896,-6.117904663085937,3.7030827999115
1746702503.9473362,-0.3513420820236206,-10.538715362548828,6.809489727020265
1746702504.0417216,0.6835376024246216,-4.377927303314208,6.912127494812013
1746702504.1610503,1.4766123294830322,-7.17557668685913,4.068091392517091
1746702504.2437215,0.461231529712677,-8.394704818725586,4.8795437812805185
1746702504.3261776,0.2509082555770874,-9.576948165893553,7.535784721374513
1746702504.4287586,1.5874366760253906,-8.96425724029541,6.9450135231018075
1746702504.5053823,0.8434154391288757,-3.2460367679595943,4.558305263519287
1746702504.615638,0.7013133764266968,-7.939512252807616,6.033671379089356
1746702504.688037,0.746475338935852,-8.056679725646973,6.066078186035157
1746702504.7856724,-0.02854263409972191,-3.9727723598480216,8.085968017578125
1746702504.8715823,-0.4554236829280853,-3.3610479831695548,7.148068904876709
1746702504.9645298,1.9661235809326172,-5.907391071319579,4.570111751556397
1746702505.0793886,1.61203134059906,-5.227062702178954,5.757028102874757
1746702505.1503937,0.6216405034065247,-5.912006378173827,7.749443531036378
1746702505.251217,0.1423228532075882,-8.918245315551758,6.512145996093751
1746702505.3330777,-0.532379150390625,-6.9987096786499015,7.203620910644532
1746702505.4265327,-1.595505714416504,-9.230556488037108,9.98079299926758
1746702505.5526578,-1.140730381011963,-4.414990901947021,4.466153144836427
1746702505.610255,-1.1214326620101929,-6.181681156158446,7.426262378692628
1746702505.7063925,-1.2110179662704468,-7.457958221435546,9.228416442871096
1746702505.7953694,-1.492311716079712,-7.997848033905028,6.583828926086427
1746702505.8876638,-2.543876886367798,-8.020014762878418,6.725645065307618
1746702506.0100238,-1.4531720876693726,-12.665288925170897,9.68595600128174
1746702506.0727074,-0.30785423517227173,-10.281701087951658,8.185527801513674
1746702506.1686056,-2.2498672008514404,-4.611017704010008,11.153520584106445
1746702506.256486,-3.003422975540161,-6.85447597503662,9.973899841308594
1746702506.3467908,-1.0936781167984009,-10.43207263946533,8.21494483947754
1746702506.462042,-0.5991026163101196,-6.155624389648437,5.297046184539796
1746702506.5333781,-1.212695598602295,-6.253957748413084,11.41110897064209
1746702506.6318357,-1.9010252952575684,-8.516564369201658,14.150557518005373
1746702506.7237902,-3.169189214706421,-9.271311759948729,9.557268142700197
1746702506.8102295,-0.6827048063278198,-8.50325012207031,7.965355396270753
1746702506.9336677,-2.8589069843292236,-10.007675170898436,10.548051834106447
1746702506.9953556,-1.6661624908447266,-7.876155376434324,11.123892784118654
1746702507.0953236,-2.909956216812134,-7.104805946350096,11.782240867614746
1746702507.1809366,-2.0420196056365967,-9.12063407897949,7.84775733947754
1746702507.2719646,-3.172788619995117,-9.571794509887694,9.283224105834963
1746702507.382528,-2.9524338245391846,-4.148226261138915,8.123236656188965
1746702507.4563663,-3.277367115020752,-11.41165256500244,10.021529197692873
1746702507.5512066,-2.6445746421813965,-12.518804550170897,10.351866722106935
1746702507.6399267,-1.032020926475525,-6.495770931243896,10.692758560180664
1746702507.7327464,-3.3151607513427734,-10.881706237792967,9.501369476318361
1746702507.8444524,-2.9640398025512695,-9.957538604736326,8.117024421691896
1746702507.9275951,-1.6623049974441528,-7.645919799804687,8.775498390197756
1746702508.0331626,-2.932417869567871,-9.336045265197752,10.300459861755373
1746702508.108572,-1.5952439308166504,-10.089217185974121,6.7150659561157235
1746702508.1948795,-0.7879073619842529,-7.1147494316101065,7.553889274597169
1746702508.3070302,-1.6735366582870483,-6.904246807098387,10.884082794189453
1746702508.3789163,-1.9864418506622314,-8.68568706512451,10.747684478759767
1746702508.487691,-0.917229950428009,-8.967595100402832,6.768178939819337
1746702508.5703576,0.33734408020973206,-7.922285556793212,6.32263469696045
1746702508.655387,-0.050996989011764526,-6.158948898315429,4.745834827423097
1746702508.7696939,0.11822132021188736,-2.5429787635803214,7.684952735900879
1746702508.840497,-1.6237400770187378,-5.547632694244384,8.341832160949707
1746702508.9387672,-0.5739076733589172,-6.107218265533446,7.48197364807129
1746702509.0265894,0.612861692905426,-5.423538684844971,3.2845196723937993
1746702509.1190784,0.0024211760610342026,0.41063237190246654,5.981258392333984
1746702509.230081,1.275600552558899,-2.8855748176574703,5.283078670501709
1746702509.304133,-1.0660820007324219,-7.346667766571044,8.258374214172365
1746702509.3972836,-0.8806293606758118,-3.6139178276062003,7.327946186065674
1746702509.4881506,0.15955618023872375,-8.189811706542967,7.70063877105713
1746702509.5778573,-0.4745287597179413,-7.5447373390197745,3.7065017223358163
1746702509.6934657,0.23962529003620148,-8.735681533813475,9.2357873916626
1746702509.764474,0.25590962171554565,-10.377284049987791,7.393920898437501
1746702509.8564441,0.2026943564414978,-6.249996662139892,4.410083770751954
1746702509.9470112,-0.7587881088256836,-8.375194549560547,6.125104904174806
1746702510.0469522,-0.1639261096715927,-10.05233573913574,7.937976837158204
1746702510.1575413,0.4360026717185974,-3.86954116821289,3.4477803707122807
1746702510.2278235,-0.2991548776626587,-7.182727336883544,4.232396602630616
1746702510.3242831,-1.1650614738464355,-6.802564620971679,6.865362167358399
1746702510.4091673,-0.6389012336730957,-6.5806212425231925,10.771562576293945
1746702510.5618455,-0.9079567193984985,-3.049388647079467,6.191709995269775
1746702510.6202126,-0.16555073857307434,-6.406982421874999,6.789710044860841
1746702510.687397,-2.0661988258361816,-8.989898681640623,8.470441818237306
1746702510.779438,-3.122065544128418,-8.87394046783447,7.488852500915528
1746702510.87045,-2.2333269119262695,-8.906886100769041,8.460329055786135
1746702510.9629695,-2.526244640350342,-8.77884006500244,7.891670227050782
1746702511.0758011,-3.431370496749878,-11.44194984436035,9.597408294677736
1746702511.1512682,-2.786745071411133,-5.285614013671874,4.710702896118165
1746702511.2530925,-2.891566038131714,-9.527400016784666,7.753307819366456
1746702511.397449,-2.6173784732818604,-6.434293746948241,5.769099712371827
1746702511.4290695,-1.848226547241211,-3.9246759414672847,3.0531919002532963
1746702511.5365074,-1.83889901638031,-3.4042029380798335,2.721322059631348
1746702511.615906,-1.9898804426193237,-5.296129226684569,4.108924865722657
1746702511.7143145,-2.148505687713623,-7.149261951446532,4.506171226501466
1746702511.7955854,-2.525892972946167,-6.859667778015136,4.858582496643067
1746702511.8985295,-2.4667410850524902,-5.192087650299072,3.3779599666595463
1746702511.9999232,-2.747300624847412,-3.9466602802276607,2.3776175975799565
1746702512.0778298,-2.699648857116699,-1.8539601564407346,1.1534738540649416
1746702512.168268,-3.3507158756256104,-2.6692764759063716,2.478329181671143
1746702512.256827,-3.055210590362549,-3.1759388446807857,3.0952003002166752
1746702512.350997,-3.0563032627105713,-2.2494511604309078,2.4290132522583012
1746702512.4621034,-3.502089738845825,-4.255444526672363,3.3919703960418706
1746702512.5323339,-3.6249446868896484,-4.078519344329834,3.4222879409790044
1746702512.659457,-3.0791828632354736,-3.193946838378906,2.914084911346436
1746702512.7196288,-4.742244720458984,-5.381769657135009,5.378817081451417
1746702512.8159971,-5.847906112670898,-7.288551807403564,6.818961143493653
1746702512.935268,-6.712591171264648,-8.283373832702635,9.11560916900635
1746702513.0015812,-6.19891357421875,-9.07520294189453,7.661372184753419
1746702513.1562607,-8.142395973205566,-12.269730567932127,10.101232528686525
1746702513.1842778,-7.414379596710205,-9.609333992004395,6.261020183563233
1746702513.2708492,-9.657262802124023,-6.910563468933105,8.097140312194824
1746702513.3855915,-6.378036022186279,-9.814158439636229,10.530501365661623
1746702513.4566076,-9.142090797424316,-9.098331451416016,6.310515880584718
1746702513.549775,-5.090216636657715,-10.537959098815918,2.7998898029327406
1746702513.6454186,-7.833698749542236,-11.734853744506836,4.848990440368654
1746702513.733283,-10.089129447937012,-13.760047912597654,13.458691596984865
1746702513.847401,-17.051652908325195,-20.785581588745114,22.739259719848636
1746702513.924092,-2.4495725631713867,-7.635789394378661,7.0360450744628915
1746702514.019926,-10.228575706481934,-10.005659103393555,6.068120002746583
1746702514.1119328,-3.123206615447998,-3.851294994354248,-0.8243233561515804
1746702514.1962135,-2.158865213394165,-6.703849792480468,5.602198123931886
1746702514.308487,-5.504251003265381,-9.718992233276365,8.02511501312256
1746702514.3789344,-0.09565258026123047,0.906179726123809,-5.902566909790039
1746702514.471393,-13.101153373718262,-9.723228454589842,13.249336242675783
1746702514.5653384,-10.44398307800293,-11.907568931579588,12.359897613525392
1746702514.6580415,-9.176621437072754,-14.474199295043944,12.86181163787842
1746702514.7686796,-17.354326248168945,-17.399282455444332,20.64097595214844
1746702514.84067,-18.521987915039062,-27.079401016235348,27.638294219970707
1746702514.9383957,-14.245221138000488,-20.38785934448242,20.39022254943848
1746702515.0268905,-12.297200202941895,-21.707775115966793,21.452629089355472
1746702515.1219893,-14.011641502380371,-21.127508163452145,21.757019042968754
1746702515.231445,-14.668024063110352,-23.547491073608395,24.68960762023926
1746702515.3160293,-14.808960914611816,-22.91365814208984,18.439500808715824
1746702515.3965087,-13.963438034057617,-23.045400619506832,25.10330963134766
1746702515.4882538,-12.90423583984375,-24.033847808837887,24.526359558105472
1746702515.5862796,-10.32732105255127,-18.486591339111325,16.93988418579102
1746702515.7675126,-12.071900367736816,-22.540334701538082,19.25905799865723
1746702515.8437297,-9.40828800201416,-20.567491531372067,21.724611282348636
1746702515.9337666,-9.042620658874512,-26.718734741210934,21.65123558044434
1746702516.0644393,-10.607996940612793,-22.05890083312988,21.72642517089844
1746702516.0901492,-8.758295059204102,-20.378900527954098,19.631498336791996
1746702516.1558669,-5.009957313537598,-13.003853797912596,11.512296676635744
1746702516.240581,-3.6670498847961426,-9.872286796569822,10.124837875366213
1746702516.329165,-3.331247568130493,-4.220288276672362,4.296527385711671
1746702516.4136825,-1.8336583375930786,-6.024442195892333,6.855847835540772
1746702516.5061247,-0.81938636302948,-3.8958151340484615,3.1011049747467045
1746702516.6146932,-1.2249679565429688,-1.1736018657684326,0.8320512771606446
1746702516.6860046,-1.3565219640731812,0.3862714171409607,0.07477530092000957
1746702516.7890341,-0.8704667091369629,-1.2147692441940305,2.0667829513549805
1746702516.8818994,-1.279319167137146,0.018166281282901896,1.0898654460906982
1746702516.9663885,-0.859359622001648,0.9885042905807495,-0.2879941165447236
1746702517.078425,-1.0036779642105103,1.6765756607055664,-0.7945455312728884
1746702517.1518304,-1.3542723655700684,0.7388831973075866,-0.6490080356597902
1746702517.2673256,-1.6678358316421509,0.15180449187755587,0.1874764263629913
1746702517.332838,-2.622406005859375,-1.9806073904037473,1.9649398326873782
1746702517.4281394,-3.2150509357452393,-5.521472454071044,4.741636753082276
1746702517.5422719,-3.7714200019836426,-5.4075288772583,5.673619747161866
1746702517.6187491,-4.013577938079834,-4.632911205291747,5.5315871238708505
1746702517.7187057,-3.8202462196350098,-5.053797245025634,6.006866455078126
1746702517.7953362,-5.213348865509033,-5.030125141143798,6.603637218475343
1746702517.8905666,-4.93430757522583,-7.561715126037597,7.689026355743409
1746702517.9990044,-5.811067581176758,-11.239887237548826,12.51175880432129
1746702518.0741704,-6.27712345123291,-18.36193466186523,18.685031890869144
1746702518.1756053,-6.12936544418335,-19.053613662719723,18.061550140380863
1746702518.2570202,-5.615692615509033,-18.195358276367184,17.992446899414066
1746702518.349172,-4.654829025268555,-16.804328918457028,15.572222709655763
1746702518.4611719,-5.765684604644775,-17.53934669494629,14.182501792907717
1746702518.537831,-6.553085803985596,-19.11873054504394,15.909292221069338
1746702518.6429555,-4.682339668273926,-12.708425521850584,12.14296627044678
1746702518.7193792,-5.864072799682617,-16.397743225097653,16.393583297729496
1746702518.8168888,-5.257414817810059,-19.524600982666012,18.259405136108402
1746702518.9341137,-4.054300308227539,-11.643289566040037,11.535972595214846
1746702518.9955347,-4.175354957580566,-7.331092357635497,8.470644950866701
1746702519.108678,-3.2500908374786377,-10.206954956054686,10.076172828674318
1746702519.1824408,-0.6739597916603088,-8.127174377441404,7.487367630004884
1746702519.2724922,-3.4069221019744873,-10.576999664306639,7.960467815399171
1746702519.3861854,-2.974344253540039,-10.994425773620604,10.625706672668459
1746702519.4651396,-2.432082176208496,-8.298871994018553,7.296463489532472
1746702519.5628848,-1.6500771045684814,-8.326632499694822,7.853812694549561
1746702519.6542006,-1.3694627285003662,-7.801349639892577,7.843794822692872
1746702519.7331183,-0.8078569769859314,-4.803337097167969,2.965981721878052
1746702519.8480787,-0.4466875195503235,-7.815840244293212,7.536888122558595
1746702519.9240587,-1.5812361240386963,-7.533544063568114,7.970691204071046
1746702520.030089,-1.5874100923538208,-8.674368858337402,7.081807136535645
1746702520.1078253,-1.3157472610473633,-8.662114143371582,5.472869396209718
1746702520.194954,-0.7852040529251099,-5.433208942413329,7.071526527404786
1746702520.3069255,-0.2658216655254364,-6.811386108398437,7.163333415985108
1746702520.3823996,0.001151159405708313,-4.268517017364501,7.265042304992677
1746702520.4771707,-0.2789233326911926,-6.100903511047362,5.980716228485108
1746702520.5678866,-0.2802880108356476,-8.453633308410645,5.625457286834718
1746702521.1326697,0.4819408655166626,-8.041107177734375,5.613841056823731
1746702521.3040504,1.288877248764038,-4.115959167480468,6.528174400329591
1746702521.4252667,1.1671288013458252,-4.796226501464843,7.9783716201782235
1746702521.5224447,0.7682706117630005,-9.502663612365723,5.739588737487794
1746702521.6501586,0.5844188928604126,-5.092740535736083,9.018899917602539
1746702521.8403327,-0.14572878181934357,-8.65329647064209,6.990722179412843
1746702521.9078622,-0.5094352960586548,-8.49552249908447,7.989257335662843
1746702522.0554543,-1.6925358772277832,-6.193291187286376,8.583091735839844
1746702522.208867,-0.5484781861305237,-8.73977470397949,7.330070972442628
1746702522.290683,0.3239104747772217,-3.5647027492523184,7.715507507324219
1746702522.6908557,0.6053652167320251,-8.49198055267334,3.5642180442810067
1746702522.8072698,1.9028422832489014,-9.520401954650879,6.568799972534181
1746702522.8964436,1.6812397241592407,-9.334544181823729,7.4501919746398935
1746702522.9454854,1.097524642944336,-9.70933151245117,8.42457962036133
1746702523.0001957,1.5010682344436646,-8.995419502258299,7.361121654510499
1746702523.236024,0.5054886341094971,-14.273550033569334,11.436951637268068
1746702523.3548968,0.32791659235954285,-12.629031181335447,8.740506172180178
1746702523.4298048,0.8617603778839111,-8.111820220947266,6.344046592712403
1746702523.5375652,1.768811583518982,-5.049251079559325,5.293584823608399
1746702523.6804078,1.7210160493850708,-2.2107267379760738,5.147743225097656
1746702523.7258244,1.7811858654022217,-3.100921630859374,6.4074578285217285
1746702523.7528446,1.3429573774337769,-2.714793920516967,7.017632484436035
1746702523.7762163,0.8071942925453186,-3.3247637748718253,7.225137233734131
1746702523.8007424,-0.33430084586143494,-1.085149526596069,3.3855020999908447
1746702523.8419116,0.8013385534286499,-5.64219570159912,5.449015140533448
1746702523.8670568,0.7728437185287476,-4.442546367645263,4.64146375656128
1746702523.892437,1.0338839292526245,-10.726473808288572,7.944606304168702
1746702523.9156868,-0.7642050385475159,-9.184706687927244,7.447613239288331
1746702523.9412985,1.3093044757843018,-4.357462406158446,5.995400905609132
1746702523.963035,-0.47106826305389404,-3.7559003829956046,8.530953407287598
1746702524.0188982,-2.374633312225342,-8.858388900756834,10.86882019042969
1746702524.0424662,0.9180399775505066,-8.709373474121094,7.004435539245606
1746702524.074397,1.443145751953125,-3.936338186264037,5.573352813720704
1746702524.0896711,-0.34936341643333435,-2.587472915649413,8.301490783691406
1746702524.1714766,-2.1606979370117188,-3.8116986751556388,7.577333927154542
1746702524.2600694,1.056363582611084,-1.9066781997680655,7.359963893890381
1746702524.5320861,-2.197880744934082,-4.606183528900146,6.753051280975343
1746702524.5756688,-1.5400084257125854,-5.538296222686767,6.004906654357911
1746702524.6191998,-1.2450802326202393,-3.6224286556243883,10.223834037780762
1746702524.6434195,-2.126084089279175,-6.715304374694823,5.942858695983888
1746702524.7203772,-1.050260305404663,-6.51874542236328,6.749478340148927
1746702524.810411,-1.7813944816589355,-9.09402561187744,14.82637691497803
1746702524.9253767,-3.611464500427246,-12.945226669311522,11.015062332153322
1746702524.9967043,-3.562023878097534,-10.689999580383299,9.472568511962892
1746702525.1092336,-5.809823513031006,-13.347507476806639,12.60593891143799
1746702525.1787596,-3.94905161857605,-9.027702331542967,8.276220321655275
1746702525.2731378,-3.203327178955078,-13.43089962005615,17.273113250732422
1746702525.3933263,-5.1509013175964355,-9.83478260040283,8.223375320434572
1746702525.458648,-3.7665438652038574,-5.763607025146484,3.586834430694581
1746702525.5531943,-6.1821489334106445,-16.491079330444336,12.604189872741701
1746702525.6437545,-2.69696307182312,-6.671211719512938,12.80660343170166
1746702525.7343252,-4.331960678100586,-14.097736358642576,10.110921859741213
1746702525.8465736,-1.5385559797286987,-10.923354148864744,8.93259620666504
1746702525.925093,-0.48309099674224854,-5.38061761856079,5.629500389099122
1746702526.0253367,-1.9523595571517944,-4.5282273292541495,7.944780349731446
1746702526.1109254,-4.161744594573975,-10.086392402648924,9.124067306518556
1746702526.1978686,-4.776313781738281,-8.12499141693115,9.153110504150392
1746702526.3079956,-3.073591947555542,-6.365057468414306,4.759454250335694
1746702526.3823786,-1.8126767873764038,-5.866533756256103,5.990727424621583
1746702526.4919727,-5.063336372375488,-11.542462348937987,10.881949424743654
1746702526.565611,-3.857703447341919,-4.781075954437255,5.491661071777345
1746702526.6656234,-4.038153648376465,-7.903449535369872,10.74514675140381
1746702526.769877,-2.0594897270202637,-8.911966323852539,5.263324737548829
1746702526.851347,-3.3286166191101074,-1.9700324535369864,6.571207046508789
1746702526.9477177,-1.078906536102295,0.7149006128311165,6.280733585357666
1746702527.0265214,-1.7936902046203613,-5.795937061309814,4.6878676414489755
1746702527.119983,-2.2059669494628906,-6.41513442993164,5.60810422897339
1746702527.2415051,-2.032526969909668,-11.417801856994627,8.910231590270998
1746702527.313128,-2.4373626708984375,-13.034335136413572,17.35429573059082
1746702527.4024975,-2.5341603755950928,-7.116549491882323,6.743413925170899
1746702527.489132,0.10639461874961853,-0.6053374409675598,0.10703981667757041
1746702527.5821917,-2.175603151321411,-4.476876258850097,6.617867946624757
1746702527.6957238,-2.831186056137085,-15.500917434692381,10.01438331604004
1746702527.7815804,-3.3865785598754883,-10.624342918395994,13.441379547119142
1746702527.8582418,-2.2290310859680176,-6.495493888854979,11.076606750488281
1746702527.9503849,-2.534071207046509,-9.419696807861326,8.173451423645021
1746702528.0480514,-0.4059753119945526,-10.566427230834961,6.180008411407472
1746702528.1682782,-0.3784007728099823,-2.975148916244506,6.786284923553467
1746702528.2363427,-2.4406373500823975,-6.485116481781004,11.720983505249023
1746702528.3289704,-1.409794807434082,-9.103561401367188,6.248995304107667
1746702528.4113073,-0.9982287883758545,-10.188853263854979,7.4400014877319345
1746702528.5100577,-0.9008079767227173,-8.251046180725096,10.219410896301271
1746702528.6237223,-1.8731112480163574,-5.622197628021239,9.464523315429688
1746702528.689615,-1.6604974269866943,-10.600923538208006,9.141139030456545
1746702528.7876248,-0.06773295998573303,-11.5321569442749,8.086696624755861
1746702528.8786433,-0.1674986183643341,-7.630990505218505,4.240180969238282
1746702528.9656558,-0.4165322184562683,-4.076457977294921,7.526027202606202
1746702529.0794623,-1.6846530437469482,-3.742540836334227,9.493993759155273
1746702529.1521106,-0.8074345588684082,-6.524882316589355,5.094768047332765
1746702529.2519848,0.03691086173057556,-9.991567611694336,5.713951110839845
1746702529.3347049,-0.1677221953868866,-5.993287563323974,4.174979209899903
1746702529.4276335,-0.7418661117553711,-4.379665851593017,9.21976089477539
1746702529.5429819,-1.3079519271850586,-6.32084274291992,12.106620788574219
1746702529.6162097,-1.2500483989715576,-9.025866508483885,7.699393749237061
1746702529.718911,-1.3093851804733276,-3.3626000881195064,5.172289848327637
1746702529.7962184,-1.4965072870254517,-6.186993598937987,6.406385421752931
1746702529.889412,-2.053440570831299,-6.140691757202148,3.4740819931030282
1746702530.0006764,-2.0155913829803467,-8.495655059814453,6.980638027191163
1746702530.0740879,-2.785691738128662,-5.895068168640136,7.637474060058595
1746702530.1690607,-3.299009323120117,-7.3354711532592765,10.0705623626709
1746702530.259729,-1.414414882659912,-9.621459007263182,8.484793663024904
1746702530.348739,-1.321712613105774,-7.111424922943114,5.765832424163819
1746702530.4643314,-1.6956603527069092,-4.465073585510253,5.976164340972901
1746702530.5354834,-2.6809442043304443,-6.0617098808288565,8.366656303405762
1746702530.6400704,-1.723907232284546,-8.120059967041014,7.304162025451661
1746702530.7212067,-0.8730597496032715,-8.040383338928223,6.285333156585694
1746702530.8117182,-0.9182652235031128,-6.638886928558349,6.921398639678956
1746702530.929991,-0.9568333625793457,-6.212934494018554,7.731641292572022
1746702531.0063944,-0.4267091155052185,-7.40535020828247,7.425002574920655
1746702531.1248631,-0.4127269685268402,-3.806989192962646,4.888190746307374
1746702531.1803532,-0.4616048336029053,-6.6839022636413565,6.03453016281128
1746702531.2742627,-0.7687861323356628,-8.415215492248533,7.526482105255128
1746702531.3878388,-1.1754273176193237,-4.21881341934204,6.1719093322753915
1746702531.4586647,-0.899837851524353,-5.442787170410155,7.088405132293702
1746702531.5543876,-0.5895269513130188,-8.491281509399414,6.742165088653565
1746702531.6418338,-0.9645285606384277,-8.572461128234862,8.337571144104006
1746702531.7354538,-0.9644936323165894,-6.8110408782958975,9.880281448364258
1746702531.8477042,-1.3216968774795532,-9.42728805541992,7.606228828430177
1746702531.9322202,-1.6416242122650146,-10.351183891296385,10.45803737640381
1746702532.0246737,-1.0826497077941895,-10.30935764312744,7.670880317687989
1746702532.1112282,-1.7546004056930542,-7.310836315155028,10.658668518066408
1746702532.1996195,-0.5492634177207947,-9.830931663513184,6.1234474182128915
1746702532.3323987,-2.26727032661438,-9.820568084716795,11.071862220764162
1746702532.3796315,-1.094525694847107,-9.808984756469725,8.676549911499025
1746702532.4753878,-1.7507184743881226,-8.767509460449217,8.724370002746584
1746702532.576984,-1.1676654815673828,-8.076293945312498,8.658396720886232
1746702532.667578,-1.7774933576583862,-9.38466167449951,10.363667488098146
1746702533.0323796,-2.482774257659912,-10.769680976867674,9.972276687622072
1746702533.072529,-2.2150235176086426,-11.98567199707031,10.917415618896486
1746702533.1308823,-2.211695909500122,-11.534345626831053,10.493713378906252
1746702533.1550798,-3.3656411170959473,-11.262644767761229,10.984697341918947
1746702533.169608,-2.983466625213623,-12.5428991317749,10.157365798950197
1746702533.2356527,-2.792701244354248,-11.662050247192381,9.973690986633303
1746702533.3260353,-1.6301684379577637,-10.91745090484619,10.103556632995607
1746702533.4005084,-3.880199909210205,-12.396708488464354,15.888415336608888
1746702533.489975,-3.1387557983398438,-13.857481956481932,13.322791099548342
1746702533.5828435,-2.410712718963623,-14.350867271423338,12.39855480194092
1746702533.7229931,-2.9106314182281494,-11.74803829193115,10.004404067993166
1746702533.7653906,-1.3756111860275269,-7.5532488822937,8.855395317077638
1746702533.8630729,-1.7811367511749268,-10.327897071838377,12.507680892944338
1746702533.9520423,-3.15948748588562,-10.669012069702147,10.117125511169435
1746702534.0585835,-2.6196117401123047,-12.641801834106444,12.064174652099611
1746702534.1565871,-2.6676900386810303,-11.117390632629393,9.246155738830568
1746702534.2323582,-2.3607795238494873,-12.78800868988037,12.758609771728517
1746702534.3316789,-2.030794858932495,-12.083130836486815,13.264329910278322
1746702534.41164,-1.8358659744262695,-10.403820037841795,9.510693550109865
1746702534.5137053,-1.0900242328643799,-11.51683712005615,9.439148902893068
1746702534.6194546,-1.7557334899902344,-11.179981231689451,10.445629119873049
1746702534.6900458,-1.072052240371704,-5.456995964050292,6.988856315612794
1746702534.786774,-0.872675895690918,-5.555431842803954,6.771953105926515
1746702534.8729324,-0.5036280155181885,-8.001707077026367,6.799865245819093
1746702534.9662697,-0.44336259365081787,-6.5111680030822745,7.405911922454835
1746702535.0971878,0.055358171463012695,-3.1136467456817623,5.42819356918335
1746702535.152437,-0.7748920917510986,-3.922615528106689,5.242233753204347
1746702535.2597969,0.24241647124290466,-4.642301559448241,4.997549057006837
1746702535.3349814,0.0014475882053375244,-0.7016006708145136,4.752899169921875
1746702535.4284797,-0.390755295753479,-3.020023107528686,4.000456809997559
1746702535.5393045,-0.14197272062301636,-3.737839698791503,6.817007541656495
1746702535.6210575,-0.2920602262020111,-3.794938325881957,6.1144375801086435
1746702535.7347867,-0.9605367183685303,-9.267146110534668,7.233261585235597
1746702535.811184,-1.6580893993377686,-8.625292778015135,9.54519557952881
1746702535.8909948,-2.9122846126556396,-8.304314613342283,11.05994510650635
1746702536.0152178,-2.906642436981201,-11.552952766418455,11.582524299621584
1746702536.07272,-2.50349497795105,-14.78135013580322,10.508949279785158
1746702536.1694055,-3.2441232204437256,-13.570775032043455,12.084035873413088
1746702536.2586942,-3.4507908821105957,-9.389315605163572,11.655273437500002
1746702536.352852,-3.050140857696533,-5.020096778869628,7.893265247344972
1746702536.4651854,-2.9805915355682373,-9.94686698913574,12.769188880920412
1746702536.5371912,-3.741555690765381,-19.171228408813473,21.308328628540043
1746702536.6374114,-3.7288362979888916,-15.642234802246092,13.675339698791506
1746702536.7203968,-4.141452312469482,-15.36455726623535,12.603419303894045
1746702536.8137448,-3.360374689102173,-15.091444015502928,11.750780105590822
1746702536.9317985,-2.540522336959839,-11.532887458801268,10.87236785888672
1746702536.9968832,-2.9069113731384277,-8.893567085266112,9.812893867492678
1746702537.093477,-3.1605231761932373,-7.701069355010985,8.787755012512209
1746702537.182234,-2.9062867164611816,-7.056162357330321,8.682199478149414
1746702537.2748158,-4.285898208618164,-12.39479637145996,14.024591445922853
1746702537.3924632,-2.248875856399536,-10.543534278869627,12.395595550537111
1746702537.458982,-2.9709348678588867,-7.799946784973144,7.06914520263672
1746702537.55169,-3.865823268890381,-6.744989871978759,8.870405197143555
1746702537.6446576,-3.4371373653411865,-8.017322540283201,10.325000762939455
1746702537.7362819,-2.7981116771698,-10.656343460083008,7.217257499694825
1746702537.8679566,-2.145548105239868,-4.3262057304382315,7.039040088653565
1746702537.9196732,-2.8690497875213623,-1.5133891105651847,7.825634479522705
1746702538.0234616,-1.6179739236831665,-4.034545898437499,3.646722316741944
1746702538.1106503,-2.4979677200317383,-7.305916309356689,7.343716621398927
1746702538.204587,-2.142490863800049,-7.952733039855956,5.790806770324708
1746702538.3247788,-2.417907238006592,-9.162473678588865,8.078622817993166
1746702538.3824656,-1.666337013244629,-9.699350357055664,5.430265426635743
1746702538.4804997,-2.7189793586730957,-7.3402767181396475,8.671851158142092
1746702538.5685475,-1.1358087062835693,-3.38106894493103,4.77402400970459
1746702538.6609726,-1.374768614768982,-1.8981213569641107,5.687798500061035
1746702538.7726135,-0.7997132539749146,-1.209061503410339,3.259005308151245
1746702538.8442442,-1.4748783111572266,-3.4645459651947017,4.5407395362854
1746702538.937855,-1.2156083583831787,-6.984479427337646,5.08133363723755
1746702539.0432882,-1.7692925930023193,-9.681386947631836,5.630735874176026
1746702539.1196532,-3.010777711868286,-9.937487602233885,10.961894989013674
1746702539.2410367,-1.1910580396652222,-7.822229385375976,9.520725250244142
1746702539.313322,-2.2753729820251465,-8.161431312561033,9.270432472229006
1746702539.41169,-2.4556915760040283,-9.158226013183592,11.339382171630861
1746702539.4883485,-1.4481264352798462,-9.208973884582518,8.76164245605469
1746702539.5815532,-0.7715543508529663,-7.001581192016601,6.844650745391847
1746702539.7064908,-0.12269482016563416,-4.6894845962524405,4.01935911178589
1746702539.768294,-0.748711347579956,-4.121094226837157,6.026201248168946
1746702539.8604114,-0.3706245422363281,-4.368958950042724,7.374237060546876
1746702539.9536529,-0.5870161056518555,-5.858316898345946,4.644310951232911
1746702540.0492823,-1.1170384883880615,-5.783292770385741,9.275412559509277
1746702540.1577623,-0.6470471620559692,-2.5023517608642574,2.1528952121734624
1746702540.2373316,-2.235565662384033,-4.930644035339355,9.974249839782715
1746702540.3598127,-1.9807897806167603,-10.458922386169432,9.020128250122072
1746702540.4121537,-4.005054950714111,-11.24209690093994,11.165057182312013
1746702540.5084162,-1.320841670036316,-9.901166915893553,9.74466133117676
1746702540.6210625,-2.129484176635742,-10.824824333190916,12.677769660949709
1746702540.688758,-2.5119709968566895,-11.262138366699217,8.596948623657228
1746702540.7824316,-2.148458480834961,-7.316008567810057,11.821696281433107
1746702540.8743062,-1.544844150543213,-8.495752334594727,6.225656032562257
1746702540.9684162,-0.6821292638778687,-5.217565059661864,6.421547412872315
1746702541.0808866,-2.2751166820526123,-6.241607189178466,10.678911209106445
1746702541.296822,-2.226564884185791,-8.604695320129393,10.164867401123049
1746702541.3379023,-2.641313314437866,-7.966154098510741,8.290900230407717
1746702541.358478,-3.995100975036621,-15.077674865722654,14.507531166076662
1746702541.4302735,-4.412612438201904,-12.643847465515135,12.73847007751465
1746702541.5470088,-4.0267839431762695,-15.152146339416502,10.64616394042969
1746702541.6169236,-6.316686153411865,-20.93012428283691,17.584974288940433
1746702541.713989,-6.3547749519348145,-17.19239997863769,19.188394546508793
1746702541.8007698,-3.8684744834899902,-19.3456859588623,19.067422866821293
1746702541.8913841,-4.450680255889893,-16.32307243347168,14.279641151428224
1746702542.083091,-4.283138751983643,-14.844812393188475,14.210507392883303
1746702542.1180441,-4.381796360015869,-12.33607482910156,12.708351135253908
1746702542.1729927,-3.000304698944092,-8.18568706512451,9.900090217590334
1746702542.2614434,-2.691532611846924,-5.689437866210937,8.027120590209961
1746702542.3504722,-2.6962742805480957,-8.782096862792967,8.86046886444092
1746702542.4650047,-3.176826000213623,-7.923895835876464,8.824164390563967
1746702542.572171,-3.171649694442749,-6.933213233947753,9.265918731689453
1746702542.6405542,-2.924895763397217,-8.219135284423828,5.16435194015503
1746702542.7193847,-1.7573893070220947,-6.037086009979247,7.159226417541505
1746702542.8182952,-2.7922284603118896,-8.816682815551756,13.4552698135376
1746702542.9306972,-2.5870964527130127,-11.09007167816162,11.15635681152344
1746702542.9991634,-2.437098979949951,-8.528038024902342,10.11555576324463
1746702543.108089,-2.3475711345672607,-10.669424057006834,10.70315742492676
1746702543.182296,-1.228346347808838,-4.983020305633544,7.844952106475831
1746702543.2755961,-0.04409638047218323,-13.465391159057615,9.13639259338379
1746702543.38727,-1.5060633420944214,-17.526159286499023,11.237498283386232
1746702543.458049,-0.946280300617218,-13.02046489715576,18.135744094848633
1746702543.553434,-2.790400505065918,-15.730716705322264,14.2974328994751
1746702543.6432962,-0.775068461894989,-12.096316337585447,11.587432861328127
1746702543.7370903,-1.1840490102767944,-15.344401359558104,12.483640670776369
1746702543.850135,-1.90495765209198,-8.62603187561035,15.886938095092775
1746702543.9264708,-3.3344388008117676,-15.736942291259764,11.767121315002443
1746702544.0283155,-2.2696661949157715,-15.039148330688475,16.039377212524418
1746702544.1065986,-5.254190921783447,-8.360776901245115,10.348033905029299
1746702544.1993434,0.3761506974697113,-2.301181077957153,4.514801025390625
1746702544.411053,-1.8542639017105103,-15.797905921936033,11.08672332763672
1746702544.4352624,-4.188512325286865,-8.013778686523436,11.73744297027588
1746702544.486159,0.77237868309021,-3.6761291027069083,7.279685020446778
1746702544.5669603,-1.0506190061569214,-11.254361152648926,6.776671409606935
1746702544.6602345,-1.9892948865890503,-4.268679618835448,5.758197784423829
1746702544.7749467,-2.2507379055023193,-5.286381244659422,11.23816967010498
1746702544.8529177,0.19041410088539124,-3.985216379165649,4.34092664718628
1746702544.9520462,-1.3602656126022339,-8.342693328857422,5.933305263519288
1746702545.0345302,0.045442938804626465,-1.9776741266250601,6.7449774742126465
1746702545.1310923,-0.8888334035873413,-9.9688081741333,6.687204360961915
1746702545.26377,-1.4123587608337402,-3.4036757946014395,8.837104797363281
1746702545.3073804,-0.4219050705432892,-10.15449333190918,5.890223026275636
1746702545.4038205,-0.8026403188705444,-3.7460446357727037,10.528458595275879
1746702545.4921193,0.11193832755088806,-9.048852920532227,4.620522975921632
1746702545.5829709,-1.719018816947937,-1.7594243288040152,8.061910629272461
1746702545.6937528,0.20047906041145325,-9.711799621582031,5.419148445129395
1746702545.7683227,-2.3215315341949463,-5.804661750793456,10.582223892211914
1746702545.8661053,-1.166945457458496,-11.537815093994139,8.479796409606935
1746702545.9529986,-3.7143571376800537,-7.302670001983642,10.295566558837892
1746702546.0526724,-1.5513321161270142,-13.4738073348999,8.873436927795412
1746702546.157107,-1.7209535837173462,-9.179106712341309,6.683806896209718
1746702546.2322197,-0.8558957576751709,-4.848897933959961,2.6611237525939946
1746702546.3296268,-2.40594220161438,-2.044345140457153,5.239115238189697
1746702546.4148524,-0.07384905219078064,-9.580488204956055,6.80055856704712
1746702546.512812,-0.7380031943321228,-3.1638791561126696,9.294174194335938
1746702546.628614,-0.2936479449272156,-8.972588539123535,6.741653442382813
1746702546.690597,0.030662238597869873,-6.912193298339842,11.731644630432129
1746702546.783302,-0.9186280965805054,-8.69346809387207,7.137644290924073
1746702546.8749678,0.13834604620933533,-4.524750709533691,3.5361237525939946
1746702546.9663403,-2.774477005004883,-5.994652748107909,6.253686428070069
1746702547.0814342,0.4630165100097656,-9.428705215454102,5.837817668914796
1746702547.1576884,-2.0413198471069336,-4.309732913970946,9.489422798156738
1746702547.2913578,-1.178917407989502,-11.820376396179197,7.861316204071047
1746702547.3381965,-0.6472795009613037,-12.33982467651367,9.233196258544924
1746702547.4339178,-0.0036095082759857178,-3.6083266735076895,6.475435733795166
1746702547.5438786,0.2925003468990326,-7.106686115264892,4.0321998596191415
1746702547.618373,-2.7341227531433105,-5.195679187774657,8.408333778381348
1746702547.717245,-2.9131903648376465,-2.536049604415893,5.046562194824219
1746702547.8103368,-2.1901729106903076,-8.327929496765137,4.825598716735841
1746702547.8902152,-2.2105767726898193,-15.204881668090819,15.67326068878174
1746702548.00405,-0.31305819749832153,-1.3932787179946888,8.944857597351074
1746702548.076615,-3.943877935409546,-6.6703567504882795,13.217402458190918
1746702548.1783445,-0.915916383266449,-15.188179969787596,11.12802314758301
1746702548.2608728,-1.0324640274047852,-11.251832008361815,12.01091766357422
1746702548.441992,-2.4136264324188232,-8.85956287384033,12.141338348388674
1746702548.4970002,-0.4203685522079468,-14.123691558837889,11.114521980285646
1746702548.5398355,-3.8106350898742676,-10.343729019165037,9.880892753601076
1746702548.7345626,-0.6941856145858765,-3.5886778831481925,8.650580406188965
1746702548.7812746,-1.9711655378341675,-8.44816780090332,7.082374095916749
1746702548.828871,0.10718682408332825,-9.507455825805662,8.124681472778322
1746702548.9324696,-1.855490803718567,-5.0864315032958975,6.59544849395752
1746702549.0120282,0.778154730796814,-2.269256830215453,7.677827835083008
1746702549.0912836,0.3573593199253082,-3.9265763759613033,4.850147247314454
1746702549.1832001,1.1205724477767944,1.0912295579910285,4.754744052886963
1746702549.2775497,-0.31158703565597534,-3.104308128356933,3.8909347057342534
1746702549.3931184,-0.9430238008499146,-5.9598093032836905,4.627833366394044
1746702549.460729,0.6830712556838989,-2.7204041481018058,7.8543291091918945
1746702549.5804474,-1.1601762771606445,-9.567063331604002,9.12594795227051
1746702549.6448188,0.1546192765235901,-6.666455745697021,10.565037727355957
1746702549.74277,-1.3241475820541382,-8.818822860717772,8.120599746704103
1746702549.850538,-1.2208096981048584,-8.103698730468748,9.665951728820803
1746702549.9228287,-2.993710994720459,-10.144081115722654,12.62697219848633
1746702550.0210023,-0.9005042314529419,-9.282961845397947,12.53529453277588
1746702550.1160386,-0.7182419300079346,-14.611903190612791,10.539978027343752
1746702550.1985705,-1.1674482822418213,-14.020606040954588,11.17694664001465
1746702550.3240705,-0.8787904977798462,-7.572115421295164,12.790472984313967
1746702550.3919537,-1.3362791538238525,-11.811680793762205,8.411076545715334
1746702550.4749148,-1.2696473598480225,-13.431282997131346,12.686002731323244
1746702550.5669866,-3.569641351699829,-7.712841987609862,10.272350311279299
1746702550.6637032,-0.5535383820533752,-3.718166351318358,9.760218620300293
1746702550.781509,-1.2840189933776855,-5.888154506683349,5.503105640411378
1746702550.8435059,0.7974026203155518,-7.450901508331298,5.458705425262452
1746702550.9369657,-3.1639134883880615,-9.152804374694822,13.01433563232422
1746702551.0292332,-1.5550020933151245,-6.976553440093992,12.40902042388916
1746702551.1416337,-2.254643201828003,-11.036169052124022,8.684344291687013
1746702551.233896,-0.6895269751548767,-12.080861091613768,12.40920925140381
1746702551.3126888,-2.2707862854003906,-7.436161041259764,11.255462646484377
1746702551.4226437,0.28411051630973816,-2.245367288589477,4.516097545623779
1746702551.4929605,0.7964695692062378,-6.959519863128662,3.465036392211915
1746702551.5847955,-1.7805969715118408,-6.096865653991698,7.250754356384278
1746702551.7137487,-1.102737545967102,-9.85038089752197,13.78812599182129
1746702551.767316,-3.138216257095337,-12.016139030456541,8.587757110595705
1746702551.8622699,-1.1792532205581665,-13.162189483642576,11.2063045501709
1746702551.9542623,-2.697272777557373,-10.44968509674072,8.958642959594728
1746702552.0700781,-3.866842269897461,-8.006665229797362,9.56186866760254
1746702552.1579473,-1.2982732057571411,-4.194700241088866,9.973971366882324
1746702552.2391891,-1.8064110279083252,-5.922755241394042,9.076275825500488
1746702552.546701,-3.0675015449523926,-9.606160163879393,7.659925460815431
1746702552.579671,-1.2284916639328003,-9.789797782897947,8.263895988464357
1746702552.6140199,-2.1518921852111816,-10.870481491088865,12.211939811706545
1746702552.6362221,-3.064695119857788,-9.60716915130615,9.510790824890138
1746702552.6962872,-4.4033918380737305,-8.258261680603026,7.7227258682250985
1746702552.7919354,-3.316721200942993,-8.307277679443358,11.884998321533205
1746702552.874893,-1.883955478668213,-4.248355865478515,10.004633903503418
1746702552.9761724,-2.7649176120758057,-2.2155213356018058,7.912520885467529
1746702553.0806203,-1.2202770709991455,-5.651607990264892,9.379176139831543
1746702553.1625566,-3.7066779136657715,-9.216141700744629,6.993753910064698
1746702553.4342904,-2.8600759506225586,-8.439242362976074,6.608605384826661
1746702553.473943,-0.9733157157897949,-8.939561843872069,8.669955253601076
1746702553.498913,-3.7936439514160156,-9.06737422943115,10.498682022094728
1746702553.55048,-3.5344457626342773,-8.502831459045408,11.794981002807619
1746702553.6155696,-3.602475166320801,-10.303147315979004,6.889234066009522
1746702553.714396,-3.39652156829834,-2.284598350524902,2.164545297622681
1746702553.8009021,-2.5659756660461426,-5.183585166931152,3.576532363891602
1746702553.891798,-2.525153398513794,-2.3922789096832267,5.685172080993652
1746702554.125935,-1.125458836555481,-7.8479013442993155,5.197911739349366
1746702554.1538875,-2.9946327209472656,-14.585896492004393,9.143003463745119
1746702554.2042792,-4.871179580688477,-6.133671283721923,8.684404373168945
1746702554.2606843,-4.981105327606201,-9.741796493530272,12.23358726501465
1746702554.3531682,-1.9762263298034668,-10.330161094665526,8.807520866394045
1746702554.4895787,-4.951412200927734,-8.204282760620115,8.95595455169678
1746702554.5472825,-2.9344332218170166,-8.327826499938965,6.8627309799194345
1746702554.636105,-2.578765392303467,-4.126800060272216,8.711328506469727
1746702554.7263803,-0.8807944059371948,-0.8587810397148129,2.7900726795196533
1746702554.830608,-2.081047773361206,-6.1253318786621085,4.902095794677735
1746702554.9382358,-4.216597080230713,-15.431846618652342,10.965945243835451
1746702555.010227,-4.467708587646484,-6.222354888916015,10.239293098449707
1746702555.1057227,-3.2935657501220703,-6.457345008850096,11.914481163024902
1746702555.1846888,-2.522953510284424,-12.886435508728026,9.097433090209963
1746702555.2817678,-3.060518264770508,-6.684882640838622,4.860175132751466
1746702555.3888762,-4.080464839935303,-7.128572940826415,8.952475547790527
1746702555.4611135,-4.207613945007324,-8.958312988281248,9.236454010009767
1746702555.5572238,-1.79500150680542,-8.866275787353516,6.136930465698243
1746702555.648038,-6.320219993591309,-5.53895330429077,11.292716026306152
1746702555.7370236,-3.869152545928955,-6.067489147186278,6.323806285858155
1746702555.8630593,-3.588141679763794,-5.6881418228149405,7.1391053199768075
1746702555.9266574,-2.0723605155944824,0.29768705368042064,5.974733829498291
1746702556.0275013,-2.8922176361083984,-7.237922191619872,6.100120067596436
1746702556.1111765,-2.0187253952026367,2.046306848526002,6.592189788818359
1746702556.204172,-0.016713708639144897,-4.5725321769714355,1.9448775053024299
1746702556.3141887,-2.9037928581237793,5.07998275756836,4.885289669036864
1746702556.3841827,-1.571284294128418,-8.736160278320312,5.162396907806397
1746702556.4764683,-7.350363731384277,-9.579016685485838,12.889601707458498
1746702556.56687,-5.418067455291748,-14.586392402648924,11.541975021362306
1746702556.662304,-7.181062698364258,-10.194111824035643,10.52520275115967
1746702556.774586,-6.638068199157715,-12.325681686401365,16.177478790283203
1746702556.8526835,-4.203421115875244,-16.420284271240234,9.083646774291994
1746702556.9474294,-6.060975074768066,-5.662424087524413,6.342074871063233
1746702557.0294833,-5.042875289916992,-12.538763046264647,16.68130111694336
1746702557.1228728,-6.0176100730896,-16.17671775817871,13.541620254516603
1746702557.2353618,-5.261119365692139,-17.651306152343746,15.289902687072756
1746702557.312588,-8.940264701843262,-18.96040344238281,16.13527870178223
1746702557.4120967,-8.583969116210938,-15.548790931701658,15.55044746398926
1746702557.4923635,-4.952616214752197,-12.504037857055662,16.467370986938477
1746702557.5842404,-5.054033279418945,-14.461977005004881,8.770965576171877
1746702557.742425,-4.834171295166016,-16.63651657104492,14.773263931274416
1746702557.7707336,-5.797687530517578,-11.51123809814453,14.92215919494629
1746702557.8650043,-3.725149154663086,-11.8435583114624,12.870429039001467
1746702557.9981213,-3.4327714443206787,-16.08219337463379,10.218076705932619
1746702558.0535939,-4.533389091491699,-14.304229736328123,15.153608322143556
1746702558.1577451,-5.205942153930664,-14.184173583984373,9.57906246185303
1746702558.281812,-5.961974620819092,-15.470272064208983,11.822752952575685
1746702558.3288257,-5.851085662841797,-7.90102958679199,11.582505226135256
1746702558.4159489,-4.675800800323486,-15.20492649078369,8.994012832641603
1746702558.522575,-2.911513090133667,-0.22811041772365517,4.215612411499023
1746702558.6963048,-1.211493968963623,1.1167333126068117,2.513221502304077
1746702558.7483513,-5.21274471282959,-12.424876213073729,10.072007179260256
1746702558.8540637,-6.228341579437256,-7.798591136932371,11.292741775512697
1746702558.8862605,-5.460216045379639,-9.031680107116697,13.653882026672365
1746702559.0155017,-4.469917297363281,-14.908065795898436,8.50511169433594
1746702559.0819502,-4.633448123931885,-3.266808509826659,10.294289588928223
1746702559.1534662,-4.509654521942139,-7.3382387161254865,15.17405700683594
1746702559.2544596,-5.0966033935546875,-7.622363090515135,12.153191566467287
1746702559.340533,-6.476869583129883,-15.580692291259764,9.930285453796388
1746702559.4293754,-7.755887985229492,-7.942777156829832,14.362569808959963
1746702559.5438082,-3.7329695224761963,-6.010250091552734,-0.10136343538761065
1746702559.6401968,-4.455645561218262,-7.345284938812255,9.04813861846924
1746702559.8004384,-4.658157825469971,-4.848392486572266,3.521393775939942
1746702559.8268163,-3.580676317214966,-8.00237464904785,14.41624450683594
1746702559.9138482,-7.213956832885742,-17.39777183532715,11.741421699523928
1746702560.0388165,-6.7801103591918945,-21.009864807128903,14.618689537048342
1746702560.0809789,-6.431526184082031,-16.296846389770508,14.461392402648928
1746702560.1932237,-5.659870624542236,-14.680853843688963,10.814893722534181
1746702560.271698,-2.417215347290039,-10.340986251831053,9.308908462524416
1746702560.3536654,-6.013217449188232,-9.094065666198729,9.278470039367678
1746702560.4756174,-6.220900535583496,-17.679813385009762,17.357566833496097
1746702560.5410762,-6.533712863922119,-13.799899101257322,17.53727149963379
1746702560.6360781,-6.252504825592041,-15.397074699401854,15.453455924987795
1746702560.8647912,-4.963083267211914,-8.403269767761229,13.90260982513428
1746702560.9038656,-2.9715633392333984,-13.347648620605467,9.547662734985353
1746702560.9621599,-4.463413238525391,-9.852336883544922,6.606483936309815
1746702561.0106568,-3.9754841327667236,-4.740587234497069,9.724370002746582
1746702561.1015043,-1.1859997510910034,-10.936656951904295,7.949649810791017
1746702561.1850193,-1.8584864139556885,-5.829175949096678,11.659029006958008
1746702561.2894406,-0.39239731431007385,-6.302133560180663,5.0793213844299325
1746702561.3903954,-1.354853630065918,-13.257161140441893,7.438573360443117
1746702561.4775703,-1.2508342266082764,-11.347887992858885,7.873944759368898
1746702561.5780277,-2.651392936706543,-7.83928871154785,12.911035537719728
1746702561.6518598,-2.8079495429992676,-4.856441497802733,11.010904312133789
1746702561.775608,-2.111456871032715,-8.758910179138184,6.5014991760253915
1746702561.964714,-1.0042961835861206,-11.193172454833983,8.81093215942383
1746702562.0058322,-0.006387650966644287,-13.140800476074217,8.370131492614748
1746702562.0624087,-0.6411561965942383,-11.201046943664549,8.984700202941896
1746702562.1185756,-1.162911057472229,-7.788885593414306,5.572225093841554
1746702562.2019606,-2.9063451290130615,-9.99594974517822,11.451540946960451
1746702562.3181474,-1.2071982622146606,-0.055239483714103,5.714376449584961
1746702562.3910778,0.5681056976318359,-7.752275466918945,3.304173469543458
1746702562.5317857,-1.4301271438598633,-5.756231784820556,6.122353076934815
1746702562.5768943,-0.33985358476638794,-1.6120662689208975,8.014732360839844
1746702562.6617799,1.4164202213287354,-0.04253202676773078,-0.5670189261436462
1746702562.786931,0.6354151964187622,-3.2091248035430904,2.380086183547974
1746702562.8490386,-1.2505344152450562,-3.0530645847320548,8.83325481414795
1746702562.9428825,-1.3952223062515259,-8.092510223388672,6.557385921478272
1746702563.0303009,-0.8306647539138794,-11.63740539550781,9.064455032348635
1746702563.1526732,-2.9468741416931152,-6.149500846862792,7.431070804595948
1746702563.2695444,-1.5500706434249878,-3.2779781818389884,8.33212947845459
1746702563.4528224,-0.002751976251602173,-9.13745403289795,4.298438549041749
1746702563.4863591,-1.5353927612304688,-7.0241961479187,6.148635387420655
1746702563.5329568,-0.8276931643486023,-4.511802673339843,8.416849136352539
1746702563.7109761,-0.9210385084152222,-8.134797096252441,5.650245666503907
1746702563.8670433,-1.4983768463134766,-9.828674316406248,7.828517436981202
1746702563.9210773,-2.432582378387451,-5.506494522094726,8.211084365844727
1746702563.948536,-1.1712783575057983,-5.958543777465819,8.37285041809082
1746702563.9708183,0.001940608024597168,-9.797896385192871,5.741758823394776
1746702564.068893,-1.4053705930709839,-4.818130493164062,7.7465481758117685
1746702564.163076,-0.6486461162567139,-3.243168592453002,7.734741687774658
1746702564.3785853,-1.175595760345459,-7.057020187377929,5.384488105773927
1746702564.4016356,-1.0348142385482788,-9.249144554138182,7.531046867370606
1746702564.4317298,-1.2527047395706177,-4.638693332672118,7.327016830444337
1746702564.5177271,-1.1664040088653564,-3.862760305404662,8.060578346252441
1746702564.6330228,-0.9285359382629395,-8.747207641601562,5.411723613739015
1746702564.6924968,-1.982325792312622,-10.259850502014158,7.366749286651612
1746702564.7897651,-0.047216981649398804,-9.597546577453613,5.711158275604249
1746702564.8771262,-0.35288006067276,-6.556586742401122,5.8336734771728525
1746702564.97155,-0.006067037582397461,-10.191106796264648,4.945883750915528
1746702565.233313,-1.840533971786499,-5.703239440917968,6.223032951354981
1746702565.2743778,-0.479414165019989,-8.815237998962402,5.415473937988282
1746702565.3014195,-2.7958598136901855,-4.325661182403564,6.848175048828126
1746702565.3389385,-1.7631157636642456,-10.879260063171385,8.314626693725588
1746702565.4315686,-3.153035879135132,-5.517901420593261,8.5010404586792
1746702565.5455787,-0.17288973927497864,-9.274263381958008,6.120160102844239
1746702565.6157804,-2.2111682891845703,-6.480315208435058,6.854507446289063
1746702565.7125802,-0.5438399910926819,-10.013776779174803,7.51890516281128
1746702565.8057091,-3.305053234100342,-7.173296928405761,7.1005849838256845
1746702565.890477,-1.778912901878357,-12.344019889831541,7.412203311920168
1746702566.0273094,-1.1859369277954102,-6.380768299102782,6.966015815734864
1746702566.0832753,-4.09358549118042,-5.889513969421386,8.47848129272461
1746702566.2248185,-2.0541880130767822,-6.3524060249328596,12.49682903289795
1746702566.2648249,-2.248793125152588,-5.950289249420165,5.964449882507325
1746702566.3561268,-0.5461159944534302,-9.782324790954588,7.668804168701173
1746702566.4669223,-2.3668460845947266,-9.790028572082518,7.988440990447999
1746702566.5383852,-1.5564091205596924,-10.588850021362305,6.915225505828858
1746702566.6388693,-2.2009637355804443,-7.975742340087889,14.060261726379396
1746702566.7268302,-2.964841365814209,-9.617668151855467,9.629974365234377
1746702566.8169894,-1.1444706916809082,-12.57484436035156,9.510308265686037
1746702566.9819038,-2.4315996170043945,-13.573262214660643,12.55589294433594
1746702567.2016077,-4.163061618804932,-6.585773944854735,9.803814888000488
1746702567.3395865,-2.9476523399353027,-4.345112800598143,11.036796569824219
1746702567.5444849,-1.3288793563842773,-2.019179344177245,7.592897415161133
1746702567.7308247,-0.979854941368103,-8.548074722290039,5.113131046295167
1746702567.9384675,-1.5688506364822388,-8.908203124999998,8.989783287048342
1746702568.1490045,-4.281204700469971,-7.876160144805907,7.878094196319581
1746702568.391652,-1.6140769720077515,-5.303324699401854,11.060678482055664
1746702568.6411428,-0.7962453365325928,-12.632792472839354,8.27926540374756
1746702568.8524334,-0.6780446767807007,-9.137473106384277,5.815815925598145
1746702569.099503,-1.1097512245178223,-5.691631317138671,9.602601051330566
1746702569.3391597,-2.566401958465576,-4.74271535873413,9.057546615600586
1746702569.812843,-0.30688774585723877,-6.444613933563232,3.3674781322479257
1746702569.9485333,0.28634199500083923,-2.4808807373046875,1.3918433189392092
1746702569.9798372,-0.9994316101074219,-3.383825302124023,2.1143639087677006
1746702570.0243719,-1.3783894777297974,-4.028846263885498,3.142933607101441
1746702570.069859,-3.2290544509887695,-8.660208702087402,5.319568634033204
1746702570.1209164,-2.9760608673095703,-9.291961669921873,11.861963272094728
1746702570.9343371,-2.2825472354888916,-8.607020378112793,5.627139568328858
1746702571.9488542,-1.1413203477859497,-6.9974946975708,9.415549278259277
1746702572.986006,0.31728801131248474,-8.540164947509766,3.7300832271575937
1746702573.1541536,0.4564433991909027,-6.4355783462524405,3.934234857559205
1746702573.2186582,0.2932819426059723,-7.921025753021239,5.01988172531128
1746702573.2636526,-0.4138403534889221,-5.059743881225585,9.561851501464844
1746702573.3378778,-0.6444000601768494,-6.530768871307372,8.254289627075195
1746702573.428063,-0.8061259984970093,-7.119935512542724,5.815744400024415
1746702573.5314121,-1.1694828271865845,-7.179643154144286,5.447442054748536
1746702573.7861633,-0.7909708023071289,-9.068107604980469,6.524112224578858
1746702573.8253162,-1.5775225162506104,-7.75501537322998,10.059290885925295
1746702573.8655221,-0.5059617757797241,-9.221199989318846,10.425866127014162
1746702574.3488529,-1.8798397779464722,-7.633144855499267,5.510386466979981
1746702576.4288862,-1.1174349784851074,-5.416413784027099,8.628274917602539
1746702577.0849304,-1.6188768148422241,-6.7450780868530265,6.385648727416993
1746702577.1507857,-0.6954625248908997,-4.815206050872802,6.196828842163087
1746702577.2344236,-1.1474590301513672,-8.448119163513184,6.454100131988526
1746702577.359811,-1.2711998224258423,-10.200751304626463,9.101452827453615
1746702577.5278597,-1.306040644645691,-3.833422183990478,2.883785963058472
1746702577.6348884,-0.9688947796821594,-3.5392272472381587,3.0865671634674077
1746702577.6848605,-1.2311756610870361,-6.4854698181152335,6.054312229156495
1746702577.782267,-1.0864596366882324,-10.684374809265135,10.814540863037111
1746702577.8514743,-2.690457344055176,-7.5214476585388175,8.761037826538088
1746702577.9270911,-2.2399024963378906,-8.033825874328613,6.63506841659546
1746702577.991373,-0.9770340919494629,-8.507537841796873,7.444081783294679
1746702578.0415325,-2.1337180137634277,-8.028614044189451,7.613769054412843
1746702578.131793,-0.8123238682746887,-2.4355933666229244,4.019224643707275
1746702578.204457,-0.3459189832210541,-0.18151868879795,6.136857509613037
1746702578.2779288,-1.3507680892944336,-8.803278923034668,7.210595607757569
1746702578.3592134,-1.9854661226272583,-7.318507194519042,6.85580062866211
1746702578.4216895,-2.3043811321258545,-7.367464065551757,9.279341697692873
1746702578.5083592,-1.4010801315307617,-10.93671131134033,8.379311561584474
1746702578.5908902,-1.6105937957763672,-7.994094371795653,5.611678123474122
1746702578.7312143,-2.1122236251831055,-9.732378005981444,7.720712661743165
1746702578.8319848,-1.579047679901123,-7.703455448150634,6.472053050994874
1746702578.9350708,-1.930651068687439,-6.299121856689452,6.2076969146728525
1746702578.9988286,-1.2048170566558838,-5.067614555358886,7.130137443542481
1746702579.029645,-0.9873319864273071,-8.458701133728027,6.7101197242736825
1746702579.070013,-1.1341114044189453,-7.11154556274414,7.465853691101075
1746702579.1371534,-1.0682767629623413,-5.436481475830077,6.315670013427735
1746702579.1673255,-1.2680070400238037,-9.87382125854492,8.690968513488771
1746702579.2167544,-2.6404519081115723,-10.551147460937498,11.395169258117678
1746702579.2734132,-0.931796133518219,-8.819829940795897,7.954344272613526
1746702579.3006551,-0.9066030383110046,-7.782771587371825,6.861467838287354
1746702579.3451526,-0.8549164533615112,-6.012763500213622,7.271108627319337
1746702579.4006863,-0.5257549285888672,-6.317434310913085,6.601158142089845
1746702579.454961,-1.499272346496582,-9.805408477783201,8.148725509643556
1746702579.4778478,-1.6825056076049805,-6.691453933715819,7.593547821044923
1746702579.4929001,-1.2362780570983887,-5.659418106079101,7.512511730194093
1746702579.5601323,-1.173361897468567,-8.289997100830076,8.279112815856935
1746702579.6479263,-1.9196937084197998,-7.646296977996825,7.510740756988526
1746702579.741538,-1.6581546068191528,-7.245991230010985,9.365208625793457
1746702579.8803973,-0.8092382550239563,-9.060985565185547,3.704063892364503
1746702579.931919,-1.8631863594055176,-7.354602813720702,8.727437973022463
1746702580.0357046,-0.5219065546989441,-4.872408390045165,9.400025367736816
1746702580.1127558,-0.8897626996040344,-9.307090759277344,7.220747470855714
1746702580.2026167,-2.032078981399536,-7.838327884674071,9.87090301513672
1746702580.3150868,-1.057414174079895,-6.671931743621825,6.583858489990235
1746702580.3853388,-1.130247712135315,-7.447956085205077,7.710769653320313
1746702580.478551,-2.2755351066589355,-6.495462417602538,10.817730903625488
1746702580.5714588,-1.1161872148513794,-7.05811595916748,6.477333545684815
1746702580.6651032,-1.8260154724121094,-9.794612884521483,9.8956995010376
1746702580.7810142,-0.6235189437866211,-2.6706545352935778,9.424027442932129
1746702580.959928,-0.7765492796897888,-1.1054106950759883,4.12810754776001
1746702580.979975,-2.175826072692871,-5.922854423522948,4.340446949005128
1746702581.0439525,-1.0124967098236084,-4.1014318466186515,6.228514194488526
1746702581.130573,-1.7217977046966553,-10.156726837158201,9.014556884765627
1746702581.2570403,-1.0744472742080688,-4.382984161376952,6.231030464172364
1746702581.3127818,-1.5789072513580322,-3.510911226272582,6.635510444641113
1746702581.4267426,-0.5180633664131165,-7.838190078735351,6.409047603607179
1746702581.4968083,-3.1257596015930176,-9.9022741317749,10.425788879394533
1746702581.6067574,-3.108246326446533,-10.040928840637207,6.850009441375733
1746702581.7043493,-2.166733741760254,-15.300930976867674,13.186517715454103
1746702581.7711933,-4.120847225189209,-14.142955780029295,13.907627105712892
1746702581.8863823,-2.9562978744506836,-6.964988708496093,10.146860122680664
1746702581.9548776,-1.41938316822052,-18.04426574707031,15.98009490966797
1746702582.1527975,-2.5500268936157227,-13.724473953247069,10.228304862976076
1746702582.261264,-2.0416927337646484,-3.435487985610962,1.1933999061584477
1746702582.5334654,-1.6514097452163696,-5.24394941329956,9.355497360229492
1746702582.6587505,-1.72651207447052,-9.183738708496092,8.44528102874756
1746702582.7890737,-1.2962791919708252,-6.567488670349121,3.185859680175782
1746702582.9790342,-0.6795838475227356,-2.6369140148162833,7.317652225494385
1746702583.2813601,-2.1616404056549072,-6.331625461578368,9.694628715515137
1746702583.3841703,-2.0506467819213867,-6.87385082244873,7.912340164184571
1746702583.5132687,-0.6101850271224976,-6.344786643981933,7.595888614654542
1746702583.732041,-0.6814839839935303,-8.300950050354002,7.336368083953858
1746702583.849473,-0.9503391981124878,-7.266188621520995,5.585716247558595
1746702584.0127199,-0.7787563800811768,-4.000075817108153,8.018266677856445
1746702584.3308554,-0.42548519372940063,-6.567504882812499,5.472226142883302
1746702584.4527588,-0.6901785135269165,-5.638301372528075,7.279762744903565
1746702584.5933707,-2.191715955734253,-8.390536308288572,7.715049266815186
1746702584.8085551,-1.3329012393951416,-8.675599098205565,10.437596321105959
1746702584.9530725,-1.6454063653945923,-11.30771541595459,6.267226696014406
1746702585.1232016,-1.105437994003296,-9.32304000854492,9.146499633789064
1746702585.3691037,-1.2037564516067505,0.06721476465463698,4.857501029968262
1746702585.4064662,-1.1402769088745117,-3.896170377731323,4.408761978149415
1746702585.4481218,-0.747490406036377,-9.582781791687012,7.215235233306886
1746702585.4924586,-2.1621358394622803,-7.492671012878416,12.451914787292482
1746702585.5573251,-2.2688729763031006,-6.120600700378417,5.898020267486573
1746702585.5933259,-0.07505092024803162,-3.2496919631958003,3.8101201057434086
1746702585.6245255,-3.1866421699523926,-10.919557571411131,10.260845184326174
1746702585.645334,-4.666835784912109,-9.537613868713377,9.764269828796388
1746702585.6761093,-4.089511871337891,-8.87248706817627,6.930645942687989
1746702585.7343874,-4.496283054351807,-16.569292068481445,12.585964202880861
1746702585.763868,-3.9034738540649414,-12.858739852905272,10.148424148559572
1746702585.788795,-4.621622085571289,-11.641095161437987,10.581908226013185
1746702585.8259628,-2.818295955657959,-7.007673263549803,14.481561660766602
1746702585.88039,-2.0315563678741455,-1.6560814380645743,6.585458755493164
1746702585.9033504,-1.9286695718765259,-3.6567046642303462,4.534039974212647
1746702585.9315662,-1.3641979694366455,-9.471282005310057,10.451817512512209
1746702585.9523184,-3.0233657360076904,-8.629301071166992,6.703140735626222
1746702586.0246832,-2.3718318939208984,-0.4906111359596245,5.6770920753479
1746702586.1108053,-1.815922737121582,-5.121015548706054,5.646801471710206
1746702586.200941,-1.277996301651001,-8.803439140319822,9.399600028991701
1746702586.3168051,-2.130115270614624,-7.510600566864013,8.793783187866213
1746702586.404204,-1.87045156955719,-7.519002437591552,7.539353370666505
1746702586.5125394,-1.883115530014038,-7.852638721466064,8.187170028686525
1746702586.5707798,-1.2987648248672485,-3.0742659568786617,2.19756031036377
1746702586.6641314,-1.989384651184082,-6.661290168762206,8.41108226776123
1746702586.7761085,-1.4986599683761597,-10.16575241088867,11.981019973754885
1746702586.8629856,-1.1959961652755737,-12.264118194580078,5.80200242996216
1746702586.9426787,-0.9499900341033936,-4.252765178680419,8.444635391235352
1746702587.0333385,-0.5334523916244507,-4.5479998588562,4.013673782348634
1746702587.125823,-0.002885371446609497,-3.118350267410278,5.411966323852539
1746702587.2456603,-0.4013216197490692,-2.0941629409790035,3.107151031494141
1746702587.323381,0.13411080837249756,-5.938953876495361,0.9971668720245369
1746702587.4207284,-1.2784452438354492,-6.357234001159667,4.690944194793702
1746702587.4952414,-0.5364356637001038,-4.255614280700683,5.377791404724122
1746702587.5950706,-0.814979612827301,-7.570555686950683,8.326877593994142
1746702587.7025402,-2.15346622467041,-10.079754829406737,11.156243324279787
1746702587.7725623,-1.992307424545288,-16.140842437744137,14.99201011657715
1746702587.8680208,-3.470536708831787,-10.367736816406248,10.175311088562013
1746702587.9575586,-2.68772029876709,-9.053191184997557,13.831348419189455
1746702588.0596468,-1.4737977981567383,-12.065390586853026,9.274919509887697
1746702588.1610193,0.12984603643417358,-6.806672573089599,3.6978867053985605
1746702588.238472,-0.22613689303398132,-8.23125171661377,6.404126167297364
1746702588.3448932,-1.152631402015686,-7.514172554016112,5.084696292877198
1746702588.4190505,-1.776620626449585,-8.6118688583374,7.415168762207032
1746702588.5135188,-2.8564887046813965,-5.917752265930174,11.725153923034668
1746702588.6297274,-2.051774740219116,-5.811152935028074,12.706300735473633
1746702588.6993427,-3.3997576236724854,-7.645448684692381,14.269562721252443
1746702588.7940938,-2.088006019592285,-14.194885253906248,11.151716232299806
1746702588.8783183,-3.706043243408203,-7.90942859649658,13.166315078735353
1746702588.9716234,-2.7838058471679688,-6.1757302284240705,11.080078125
1746702589.0860603,-3.270380973815918,-9.43222141265869,10.302480697631838
1746702589.1666737,-5.351353645324707,-13.20101737976074,13.442702293395998
1746702589.2520478,-3.5468060970306396,-11.46136951446533,10.3444881439209
1746702589.3398502,-1.5144096612930298,-6.2965965270996085,7.806213378906251
1746702589.4380834,-3.114267349243164,-5.999892234802245,8.672340393066406
1746702589.5535426,-3.087047576904297,-1.2674542665481556,8.47007942199707
1746702589.6277075,-4.3979668617248535,-6.843319892883299,11.995351791381836
1746702589.7216885,-4.287538528442383,-13.188048362731932,10.356021881103517
1746702589.8070123,-5.844637393951416,-10.915924072265623,18.065828323364258
1746702589.8988109,-3.351628065109253,-10.833319664001463,17.049226760864258
1746702590.0070446,-5.151716709136963,-7.896404743194578,14.334909439086916
1746702590.084082,-2.614546775817871,-16.822818756103516,13.195755004882814
1746702590.17764,-3.760577440261841,-16.061691284179684,20.408964157104496
1746702590.263539,-3.3160297870635986,-19.55690765380859,15.255815505981447
1746702590.3575847,-7.365026473999023,-22.56442260742187,24.48826408386231
1746702590.470222,-4.698629856109619,-18.306207656860348,19.631578445434574
1746702590.540087,-4.506447792053223,-16.290206909179688,12.459506034851076
1746702590.6450531,-3.160944938659668,-11.875351905822752,14.416653633117678
1746702590.7260354,-3.4043500423431396,-16.243717193603516,12.255958557128908
1746702590.8241203,-4.8377790451049805,-10.830027580261229,16.58390235900879
1746702590.9314148,-2.049640655517578,-11.544713973999022,8.97300148010254
1746702591.0146766,-4.686081409454346,-9.22513961791992,13.638561248779299
1746702591.1115596,-2.5454728603363037,-16.142074584960938,12.735177993774416
1746702591.188107,-3.567354679107666,-5.834343433380125,14.244231224060059
1746702591.2813776,-1.122649073600769,-13.836947441101072,9.649806976318361
1746702591.393333,-1.9890117645263672,-6.253122329711913,10.213014602661133
1746702591.4749923,-3.6491806507110596,-12.25887107849121,10.173070907592775
1746702591.5573218,-3.5752546787261963,-14.564880371093748,13.097077369689943
1746702591.6503832,-2.041362762451172,-9.17334461212158,14.857279777526857
1746702591.7402499,-0.894230842590332,-14.672475814819334,10.690195083618166
1746702591.854508,-1.338985562324524,-3.1773862838745113,5.349799156188965
1746702591.9286513,-3.6039841175079346,-8.02478504180908,10.407846450805666
1746702592.0266805,-1.9354228973388672,-7.879973888397216,6.053747177124024
1746702592.1098573,-1.2184810638427734,-7.853661537170408,12.494908332824709
1746702592.2022188,-1.6010468006134033,-11.240800857543944,7.927967548370363
1746702592.3192868,-0.7432892322540283,-7.691513061523437,8.093297958374025
1746702592.388239,-2.5929219722747803,-5.46010398864746,10.327242851257324
1746702592.4830875,-1.0056883096694946,-12.349708557128906,6.513797760009767
1746702592.571245,-0.9950627088546753,-4.688217639923095,10.39955997467041
1746702592.6635585,-0.7871894836425781,-10.711761474609373,8.113221168518068
1746702592.7777154,-0.7222585678100586,-8.870143890380858,8.452338218688967
1746702592.8500648,-2.4326775074005127,-5.374343872070312,10.532596588134766
1746702592.9446754,-0.7332922220230103,-13.660815238952635,9.5885705947876
1746702593.0386107,-1.735777497291565,-3.1213877201080313,8.597862243652344
1746702593.1270282,-1.2889645099639893,-3.49421215057373,3.8611011505126958
1746702593.4915798,-1.323738932609558,-8.787603378295898,6.797773361206056
1746702593.5692875,0.4562435448169708,-9.096168518066406,6.806748390197755
1746702593.5915256,-1.1175838708877563,-3.5523483753204337,7.79707670211792
1746702593.6345687,-0.7590928673744202,-5.267393112182616,5.401817798614503
1746702593.6500337,-2.9589312076568604,-7.349785804748533,12.162297248840334
1746702593.7037637,-1.184256911277771,-8.188124656677244,12.407387733459474
1746702593.772014,-1.670400857925415,-12.017448425292967,9.064542770385744
1746702593.870352,-2.9409995079040527,-7.806570529937742,12.088511466979982
1746702593.9586098,-0.005998492240905762,-10.944199562072752,7.532900810241701
1746702594.0723658,-0.5231766700744629,-11.46949291229248,6.574231624603273
1746702594.173179,-1.1916780471801758,-6.127977371215819,7.262845516204835
1746702594.2352116,-0.9090806245803833,-10.28598403930664,6.302316188812257
1746702594.3414063,-1.5480406284332275,-3.4061412811279284,10.355337142944336
1746702594.7147148,-0.2752979099750519,-2.035118103027343,7.29355525970459
1746702594.7509413,-1.442455768585205,-7.25487995147705,5.778794288635255
1746702594.7982192,-2.0451340675354004,-10.342742919921873,9.279978752136232
1746702594.8203235,-0.05849769711494446,-12.897434234619139,8.44981384277344
1746702594.8467188,-1.1491073369979858,-13.449163436889647,8.001116752624513
1746702594.8812425,-1.3986395597457886,-4.911405563354491,6.246299266815186
1746702594.975088,-3.7563881874084473,-9.522644996643065,10.301867485046388
1746702595.0920808,-1.8681390285491943,-8.769807815551756,14.446614265441896
1746702595.1575167,-3.268399715423584,-7.549427032470701,15.405732154846193
1746702595.250608,-0.8338621854782104,-18.775712966918945,13.378897666931154
1746702595.3432512,-2.2782254219055176,-6.441908359527586,11.18407917022705
1746702595.433816,-3.4133224487304688,-11.83876609802246,12.225260734558107
1746702595.5555565,-2.605483293533325,-12.820395469665526,11.10591793060303
1746702595.625003,-0.9302959442138672,-2.0533895492553698,9.177412033081055
1746702595.7576385,-0.48416537046432495,-12.159861564636229,9.479743957519533
1746702595.8090656,-0.8970739841461182,-9.347822189331053,9.6720027923584
1746702595.9077156,-2.176330804824829,-5.512100219726561,11.794386863708496
1746702596.00723,-1.5436441898345947,-12.750644683837889,9.980393409729006
1746702596.0798244,-3.2538154125213623,-10.358325958251951,10.773283004760744
1746702596.1822925,-4.19973611831665,-11.79064083099365,13.439480781555178
1746702596.265568,-2.1759424209594727,-16.420961380004883,10.355919837951662
1746702596.3605263,-2.2664177417755127,-10.84674835205078,11.42115879058838
1746702596.4808269,-2.9698052406311035,-11.021089553833006,13.786761283874513
1746702596.5410213,-0.027112066745758057,-11.775704383850096,8.700841903686525
1746702596.6384478,0.044770509004592896,-2.5320689678192134,4.861121654510498
1746702596.7268603,-1.6235475540161133,-3.44864797592163,8.176872253417969
1746702596.8225498,-0.25903216004371643,-9.967215538024902,7.090237617492677
1746702596.9364634,0.045656055212020874,-8.56362247467041,6.378386974334718
1746702597.0141835,-1.498335361480713,-2.7424056529998766,9.335883140563965
1746702597.1224782,-1.6383576393127441,-8.549537658691404,7.694828987121583
1746702597.1893635,0.04267328977584839,-8.502580642700195,6.428966522216798
1746702597.429547,0.2560543417930603,-6.238727092742919,8.284542083740234
1746702597.4678533,-1.0256537199020386,-4.177039146423339,10.025854110717773
1746702597.48469,0.1603848934173584,-6.844746589660644,4.687945842742921
1746702597.5576782,-0.0310782790184021,-10.142032623291016,4.887935638427735
1746702597.649285,0.5335397720336914,-7.139566898345946,6.529667854309083
1746702597.7418265,0.9707455039024353,-9.655572891235352,4.299683094024659
1746702597.853644,-0.04959779977798462,-6.328712463378905,5.792096138000489
1746702597.9284153,1.0583940744400024,-9.730829238891602,5.955993175506593
1746702598.034872,0.4565259516239166,-4.734909534454345,3.9230868816375737
1746702598.1143525,0.13554704189300537,-11.334280014038086,5.749492645263674
1746702598.204275,-1.301302194595337,-4.7145628929138175,6.8148560523986825
1746702598.3630078,0.4176442623138428,-10.533326148986816,5.791086673736573
1746702598.3994195,0.22280162572860718,-8.812177658081055,6.253777503967286
1746702598.4920533,-0.33804771304130554,-4.168391227722167,8.953163146972656
1746702598.5750346,-1.2635235786437988,-8.820491790771483,8.03865718841553
1746702598.9593797,-0.8155461549758911,-5.015684127807616,9.681626319885254
1746702599.022157,-0.9767473936080933,-7.310202121734618,5.793914318084718
1746702599.107341,-1.8990204334259033,-6.0405797958374015,10.425583839416504
1746702599.1443326,-1.1708745956420898,-10.247071266174315,7.330382823944093
1746702599.1760015,-1.7303228378295898,-6.054253578186034,5.150849342346192
1746702599.196517,-0.8321540355682373,-6.102543354034423,4.909176826477052
1746702599.2586184,-0.9374469518661499,-4.472023010253905,10.847359657287598
1746702599.3206599,-1.933612585067749,-14.155223846435545,11.241428375244142
1746702599.414968,-1.4273169040679932,-11.349242210388182,9.19182872772217
1746702599.49617,-0.010929346084594727,-6.356860637664793,11.204155921936035
1746702599.589842,-1.5625762939453125,-5.84776735305786,9.586150169372559
1746702599.704855,0.08540388941764832,-10.89879322052002,4.948767662048342
1746702599.7709892,-0.14257679879665375,-4.885072231292724,5.141955375671388
1746702599.8688123,-0.9955168962478638,-2.5609862804412833,8.734659194946289
1746702599.9578116,-0.499308705329895,-6.503355979919433,5.103013992309571
1746702600.0518005,-0.4920292794704437,-8.68625545501709,5.62881088256836
1746702600.1729188,-0.356322705745697,-4.024550914764403,8.03648853302002
1746702600.2469578,-1.6077508926391602,-6.762754917144774,12.551848411560059
1746702600.3472157,-1.0365393161773682,-13.156068801879881,9.420519828796388
1746702600.4195924,0.26558569073677063,-9.568954467773438,6.315967559814454
1746702600.5114977,-1.2196030616760254,-3.3723280429840075,10.315261840820312
1746702600.6320949,-1.8101272583007812,-7.797451972961425,10.015650749206545
1746702600.6968594,0.2958090603351593,-12.637498855590819,9.24581050872803
1746702600.7874355,-1.2799005508422852,-11.337855339050291,9.118863105773928
1746702600.8798609,-0.31027281284332275,-3.007172107696532,10.324275970458984
1746702600.9735153,-0.8865900039672852,-7.711867332458495,7.993079185485841
1746702601.0880287,1.7793776988983154,-8.255036354064941,5.471483707427979
1746702601.158361,1.5066819190979004,-3.5986187458038326,2.7410180568695073
1746702601.2763658,0.5577844381332397,-1.9152741432189933,7.21396017074585
1746702601.3599143,0.4977622628211975,-0.9376526474952688,7.937215328216553
1746702601.466814,0.04119071364402771,-3.7232623100280753,8.562966346740723
1746702601.548176,0.5147987604141235,-7.605724334716796,5.692952632904054
1746702601.6185772,1.8870303630828857,-7.8602609634399405,4.941649913787843
1746702601.7201164,0.8757342100143433,-8.23586654663086,4.07433032989502
1746702601.861878,0.6817153692245483,-4.372752666473388,5.505574703216554
1746702601.8964624,-0.6667361259460449,-1.2885813713073722,8.008286476135254
1746702602.0091214,-1.4306576251983643,-5.426557064056396,8.381561279296875
1746702602.0813615,-0.8922421336174011,-11.023953437805174,8.620669364929201
1746702602.1759386,-0.7615669965744019,-12.245614051818848,7.06872081756592
1746702602.266432,-0.6460356712341309,-8.037662506103514,10.295895576477053
1746702602.35751,-2.9917852878570557,-9.895893096923826,15.673530578613283
1746702602.472056,-2.9747445583343506,-14.271805763244627,11.604103088378908
1746702602.5425074,-3.1035561561584473,-14.235826492309569,11.890529632568361
1746702602.646148,-2.1928200721740723,-8.04684543609619,13.919076919555666
1746702602.725953,-3.1050267219543457,-15.628611564636229,10.960565567016603
1746702602.8269024,-2.10770845413208,-8.556139945983885,11.068835258483888
1746702602.9357314,-3.6023263931274414,-10.144595146179197,8.812330245971681
1746702603.0164955,-2.448909282684326,-9.954376220703123,9.222857475280763
1746702603.103837,-3.1932125091552734,-10.252285003662108,14.778334617614748
1746702603.1878552,-0.8682023286819458,-17.137292861938477,12.3790340423584
1746702603.4014912,-1.1328620910644531,-15.583292961120604,11.121276855468752
1746702603.424073,-3.328342914581299,-12.485154151916502,9.560475349426271
1746702603.473762,-2.407888889312744,-12.927989959716795,10.362279891967775
1746702603.5674741,-0.1987563818693161,-8.15967845916748,6.090698719024659
1746702603.6498108,-2.050138473510742,-3.6794648170471183,7.362386703491212
1746702603.7437224,-2.384305477142334,-8.161750793457031,6.0681095123291025
1746702603.8557558,-1.637007713317871,-9.040616035461426,6.45560646057129
1746702603.932235,-2.0921361446380615,-2.5992889404296866,8.29251480102539
1746702604.028171,-1.0049633979797363,-1.5593800544738765,4.289716720581055
1746702604.1127224,-2.1031577587127686,-4.371862888336181,4.111969947814942
1746702604.203037,-2.015537977218628,-1.7091672420501702,6.1223039627075195
1746702604.319946,-0.48086997866630554,-5.844289779663085,3.7191762924194345
1746702604.3883357,-0.35635700821876526,2.7641251087188725,3.1359562873840328
1746702604.4834044,-3.259056568145752,0.29003936052322443,4.53405237197876
1746702604.5822582,-2.781508207321167,-3.1691126823425293,-0.8167074918746945
1746702604.6682634,-5.534989833831787,-2.982414960861205,6.365727424621582
1746702604.7805078,-3.946763277053833,-4.113166332244872,4.725956439971925
1746702604.850142,-4.257328987121582,-2.991375923156738,2.8000090122222905
1746702604.9721632,-4.583529472351074,-7.084235191345214,7.40596103668213
1746702605.0345047,-5.295114517211914,-8.21620750427246,7.668958663940431
1746702605.1294034,-5.285865306854248,-13.310993194580076,13.133460998535158
1746702605.2394085,-5.796016693115234,-12.569443702697752,10.629402160644533
1746702605.316744,-4.008493423461914,-12.53791809082031,11.246571540832521
1746702605.4158304,-5.085309982299805,-12.79856204986572,12.965308189392092
1746702605.496534,-4.985131740570068,-11.575523376464842,13.060893058776857
1746702605.5897472,-4.0437445640563965,-9.804857254028319,11.312507629394533
1746702605.7014027,-3.7377443313598633,-7.702307224273681,8.45215702056885
1746702605.7730205,-3.9694700241088867,-6.752592086791991,8.10983657836914
1746702605.8713012,-4.5277204513549805,-5.334663867950439,6.110778331756593
1746702605.958399,-4.925595283508301,-9.133083343505858,8.18163585662842
1746702606.0496979,-5.494088649749756,-10.87168788909912,10.082258224487306
1746702606.163641,-5.471521854400635,-10.769038200378416,10.913873672485353
1746702606.2383382,-5.408942699432373,-14.177690505981444,12.214586257934572
1746702606.333396,-5.408046245574951,-14.276556015014647,11.533373832702638
1746702606.4183037,-5.1185622215271,-14.963432312011717,13.295593261718752
1746702606.5127578,-4.882242202758789,-14.977918624877928,12.564922332763674
1746702606.6292002,-5.625824928283691,-14.536980628967283,13.44384288787842
1746702606.6977012,-5.388176441192627,-13.590478897094725,13.086826324462892
1746702606.7910452,-4.173899173736572,-19.8207893371582,18.555212020874027
1746702606.880901,-5.023157596588135,-17.967472076416012,17.134469985961918
1746702606.9736726,-5.365279197692871,-14.51770496368408,13.882070541381838
1746702607.091235,-5.008128643035889,-11.686628341674803,11.916389465332033
1746702607.1661944,-4.746259689331055,-9.604291915893553,9.801219940185549
1746702607.2594926,-4.115137100219727,-10.597064971923826,9.891237258911135
1746702607.3429027,-3.491633653640747,-7.819857597351073,7.33841371536255
1746702607.4389274,-2.660153865814209,-4.242967128753661,4.388569355010987
1746702607.5809329,-2.4162447452545166,-3.7588613033294673,4.460390567779542
1746702607.636509,-2.4868435859680176,-4.145912170410155,4.809148311614991
1746702607.728038,-2.66325044631958,-3.901964426040649,4.7968411445617685
1746702607.8087056,-3.0523319244384766,-4.939369201660155,5.4437036514282235
1746702607.8976834,-3.0725622177124023,-5.574167251586913,5.733716011047364
1746702608.009336,-3.3702542781829834,-4.32603359222412,5.633622646331788
1746702608.0910594,-4.3175764083862305,-8.145586013793944,8.235461235046388
1746702608.1768887,-4.341964244842529,-9.493288993835447,8.990697860717775
1746702608.2662306,-4.798550128936768,-10.15876007080078,10.740968704223635
1746702608.365531,-4.988500595092773,-5.894457340240478,7.3211026191711435
1746702608.4707944,-5.242184162139893,-8.760657310485838,8.362451553344728
1746702608.545616,-5.256148338317871,-8.808682441711424,8.430418968200685
1746702608.6457107,-5.397426605224609,-8.877213478088377,8.04985046386719
1746702608.728318,-5.606683254241943,-9.695315361022947,10.086598396301271
1746702608.8263717,-5.699047088623047,-9.661753654479979,10.720873832702638
1746702608.9820473,-5.5630412101745605,-9.426795005798338,9.26664733886719
1746702609.0782356,-5.330757141113281,-10.045993804931639,9.562493324279787
1746702609.2746139,-5.43175745010376,-7.948026180267333,9.059569358825685
1746702609.3034518,-5.878025531768799,-9.029228210449217,9.937011718750002
1746702609.3251827,-4.969519138336182,-8.526055335998533,8.41451930999756
1746702609.3954206,-5.281930446624756,-9.571990966796873,8.972432136535646
1746702609.4667625,-5.420056343078613,-9.536277770996092,9.327668190002443
1746702609.5732625,-5.147518634796143,-10.10923099517822,9.371689796447756
1746702609.649351,-5.379894256591797,-9.879406929016112,9.532440185546877
1746702609.7441587,-5.235915184020996,-9.149721145629881,8.976003646850588
1746702609.8572123,-5.355413436889648,-9.884881019592283,10.21207904815674
1746702609.9333663,-5.2674031257629395,-9.933812141418455,9.38987159729004
1746702610.0279713,-4.282723903656006,-9.602525711059569,9.091966629028322
1746702610.1171439,-4.077417373657227,-7.185287952423095,6.811766147613526
1746702610.2046156,-3.352337598800659,-5.689887523651122,6.459631919860841
1746702610.3193462,-3.2323155403137207,-7.937403678894042,8.447150230407717
1746702610.3947232,-3.0681612491607666,-7.552100658416747,6.138343334197999
1746702610.4857042,-2.5718793869018555,-3.7949223518371578,2.8255915641784672
1746702610.5735297,-2.505716562271118,-2.7496623992919917,2.794850587844849
1746702610.6660225,-2.7645578384399414,-4.251393795013428,3.1865675449371342
1746702610.778699,-2.897129535675049,-5.066069602966308,4.295248031616212
1746702610.8503397,-3.0329384803771973,-5.876294136047362,5.4250149726867685
1746702610.9444475,-3.556036949157715,-6.34620714187622,5.7238245010375985
1746702611.0453734,-3.7339015007019043,-7.247253894805907,7.17134714126587
1746702611.131025,-3.793344736099243,-8.217658042907713,7.414808273315431
1746702611.2442489,-3.7635104656219482,-8.32968235015869,7.375798225402833
1746702611.3256552,-3.9883058071136475,-6.0900206565856925,6.3905396461486825
1746702611.4199343,-3.834465503692627,-6.846801757812499,6.5539565086364755
1746702611.50001,-3.8514528274536133,-8.310640335083006,7.5726661682128915
1746702611.59079,-4.171772003173828,-9.825026512145994,9.59398651123047
1746702611.702045,-4.678399562835693,-11.03494071960449,10.166080474853517
1746702611.7738733,-4.365025043487549,-11.317297935485838,11.06901264190674
1746702611.8731189,-4.5337958335876465,-10.372433662414549,9.55220127105713
1746702611.9588783,-4.703422546386719,-9.488342285156248,8.598674774169924
1746702612.0650887,-4.390717029571533,-8.982854843139647,7.843603134155274
1746702612.429818,-4.422038555145264,-9.812283515930174,8.297865867614748
1746702612.5198362,-4.191207408905029,-10.04691696166992,7.798198223114015
1746702612.56105,-4.723240852355957,-8.65145969390869,8.59548091888428
1746702612.605436,-4.332174777984619,-9.954087257385252,8.863892555236818
1746702612.7095177,-4.171674728393555,-9.3181095123291,8.512206077575685
1746702612.8138075,-4.102872371673584,-8.6099157333374,8.39680862426758
1746702612.8734753,-4.870768070220947,-10.433030128479002,10.237969398498537
1746702612.9744334,-4.4053053855896,-8.29152488708496,8.286313056945803
1746702613.0235713,-3.874276876449585,-5.347826004028319,6.072458267211915
1746702613.0717883,-3.6588022708892822,-6.621910095214843,6.734346389770509
1746702613.1874905,-4.211716175079346,-9.894313812255858,9.053769111633303
1746702613.2840023,-4.013229846954346,-10.641427040100096,10.189256668090822
1746702613.3126016,-3.594546318054199,-8.667633056640623,8.603109359741213
1746702613.3531048,-3.524956226348877,-7.115945816040038,7.2855520248413095
1746702613.4519947,-3.2295782566070557,-5.626506328582763,6.36782455444336
1746702613.582608,-2.6016061305999756,-5.537871360778808,5.246119022369386
1746702613.6380055,-2.5946290493011475,-5.654583930969237,6.037785530090333
1746702613.7362761,-2.335418939590454,-5.837209701538085,5.580291748046876
1746702613.8166535,-2.322676420211792,-6.107345104217528,5.247810363769532
1746702613.9755485,-2.200824499130249,-6.5861120223999015,6.598379135131837
1746702614.0755641,-1.8794234991073608,-6.62434959411621,6.205801010131837
1746702614.0944805,-1.777111291885376,-6.344911575317382,5.8309268951416025
1746702614.2124887,-1.7134259939193726,-6.2109055519103995,6.306128978729249
1746702614.2679257,-1.453142762184143,-6.423311233520507,6.234997272491456
1746702614.3606367,-1.407955288887024,-5.237754344940185,5.578167915344239
1746702614.4732246,-1.3167200088500977,-5.239145755767821,5.271681785583497
1746702614.542623,-1.4172966480255127,-5.323912620544433,5.950907707214356
1746702614.645709,-1.4014153480529785,-5.69306182861328,5.799786090850831
1746702614.7287834,-1.3077034950256348,-5.534470558166503,6.45983123779297
1746702614.819339,-1.723435878753662,-5.906199932098388,6.330276966094972
1746702614.932886,-1.8725028038024902,-5.360240459442138,6.3397207260131845
1746702615.0147336,-2.2079355716705322,-5.745990753173827,6.442866325378419
1746702615.118284,-2.559471368789673,-5.804767608642577,7.156599044799806
1746702615.1888802,-2.659708023071289,-5.194218635559081,6.58831548690796
1746702615.2810156,-2.9290268421173096,-5.924692153930663,6.768254756927491
1746702615.417716,-3.6131930351257324,-6.867192268371581,7.1397414207458505
1746702615.4669495,-3.8683269023895264,-8.474629402160643,9.65879821777344
1746702615.580553,-4.455510139465332,-10.005947113037108,9.694336891174318
1746702615.6499085,-4.791865825653076,-11.297029495239256,10.948369026184084
1746702615.7470336,-5.0296502113342285,-11.267916679382322,11.92863464355469
1746702615.8576648,-4.661794662475586,-6.777470111846923,7.6468496322631845
1746702615.9297493,-5.704182147979736,-10.634442329406737,10.530273437500002
1746702616.0694718,-5.71759033203125,-12.309345245361326,12.237866401672365
1746702616.123377,-5.706149101257324,-13.385605812072752,12.837989807128908
1746702616.2060468,-6.032367706298828,-12.485460281372069,12.222473144531252
1746702616.3504925,-6.161916255950928,-13.39786911010742,13.718852996826174
1746702616.4142776,-6.412125587463379,-15.953843116760252,15.932217597961428
1746702616.5161893,-6.55424165725708,-16.17580795288086,14.291501045227053
1746702616.5769634,-6.041922092437744,-17.84843826293945,15.63091564178467
1746702616.6825538,-6.1209893226623535,-12.784204483032225,12.06547546386719
1746702616.8134792,-5.101967811584473,-11.146143913269041,9.77873992919922
1746702616.858188,-4.5755839347839355,-8.903611183166502,7.5535316467285165
1746702616.9779937,-4.117677688598633,-8.72770595550537,7.805429458618165
1746702617.1614377,-3.9579789638519287,-9.08634281158447,9.052145004272463
1746702617.188068,-4.046106338500977,-10.386216163635252,9.469582557678224
1746702617.3441381,-3.6508970260620117,-8.544070243835447,8.144328117370607
1746702617.4463687,-3.5895228385925293,-7.370691776275634,7.299412727355958
1746702617.5137343,-3.6283178329467773,-8.768730163574217,8.43547821044922
1746702617.7075617,-3.6649816036224365,-9.479331016540526,9.136367797851564
1746702617.8998694,-3.388550043106079,-9.174882888793944,8.224963188171388
1746702618.060963,-3.2535834312438965,-11.37819194793701,10.337229728698732
1746702618.2245753,-3.1613824367523193,-10.824191093444822,9.600831985473635
1746702618.3973556,-2.765460729598999,-8.577436447143553,8.54866695404053
1746702618.5762239,-2.5301222801208496,-7.397996425628661,7.342008590698243
1746702618.6774278,-2.4895551204681396,-7.5803484916687,7.38640308380127
1746702618.8317232,-2.2607994079589844,-6.816887855529784,6.720069408416749
1746702618.9488292,-2.031059980392456,-6.023373126983642,6.173930168151856
1746702619.0134325,-2.027935028076172,-6.471730232238769,6.4988112449646005
1746702619.0488446,-1.9036060571670532,-6.145632743835448,6.159734725952149
1746702619.1277814,-1.7854000329971313,-5.547584056854247,5.843542098999024
1746702619.163328,-1.813462734222412,-5.379460334777831,5.329487323760987
1746702619.1995447,-1.7879855632781982,-5.226176261901855,5.200900077819825
1746702619.257148,-1.8882842063903809,-4.18051528930664,4.553909301757813
1746702619.3057911,-1.8336082696914673,-5.093965053558349,5.006227970123292
1746702619.346688,-1.8558948040008545,-4.615882873535155,4.698590755462647
1746702619.3820026,-1.4183802604675293,-4.5000667572021475,4.321851730346681
1746702619.4404838,-1.8579809665679932,-4.910305500030517,5.01607894897461
1746702619.4712336,-1.8620253801345825,-5.336046218872069,6.1355652809143075
1746702619.4976454,-1.871164083480835,-6.315294742584228,5.833967685699464
1746702619.5654268,-2.2042784690856934,-5.967105865478515,6.16844129562378
1746702619.5835521,-2.4794466495513916,-6.137410163879394,7.0224037170410165
1746702619.6373682,-2.710705041885376,-6.417032241821288,6.511157512664796
1746702619.7359054,-2.730262279510498,-6.472500324249267,5.941883563995362
1746702619.808983,-2.618481397628784,-5.815495967864989,5.845569610595704
1746702619.900074,-3.0703306198120117,-6.51434564590454,6.758454322814942
1746702620.0632656,-3.3030788898468018,-6.815824031829833,7.256303787231446
1746702620.0968537,-3.2580313682556152,-6.6604833602905265,6.094373703002931
1746702620.1832006,-3.011868715286255,-4.4800729751586905,5.277568817138673
1746702620.2716815,-3.2427127361297607,-4.96160078048706,5.505153179168702
1746702620.3599875,-4.3301849365234375,-10.562749862670897,10.382230758666994
1746702620.472323,-4.058166980743408,-7.5141329765319815,7.404344558715821
1746702620.5504217,-4.5322771072387695,-7.2976741790771475,6.1429176330566415
1746702620.6417449,-4.5398712158203125,-7.060907840728759,6.508525371551515
1746702620.7298377,-4.833366394042969,-12.638525009155272,11.459422111511232
1746702620.8266575,-3.9822304248809814,-9.18850803375244,8.733274459838869
1746702620.934068,-4.279763221740723,-7.766677379608153,7.5024428367614755
1746702621.015456,-4.375489711761475,-9.222652435302733,7.816092967987061
1746702621.1018326,-4.473720073699951,-10.839185714721678,9.69140148162842
1746702621.1896288,-4.6276068687438965,-10.317925453186033,9.602864265441896
1746702621.284297,-4.472443103790283,-10.919054985046385,9.615852355957033
1746702621.3973484,-4.2584662437438965,-10.202403068542479,8.947523117065431
1746702621.4681358,-4.5167365074157715,-10.519425392150877,8.808292388916017
1746702621.5656114,-4.06231689453125,-8.59260845184326,7.642195701599122
1746702621.650563,-4.038634300231934,-9.583760261535643,8.044590950012209
1746702621.7496002,-3.6539576053619385,-6.895203113555907,7.3535828590393075
1746702621.8628998,-3.7010698318481445,-7.701451301574706,7.857927322387696
1746702621.9287457,-3.355842113494873,-8.16346740722656,7.948117256164552
1746702622.0280325,-3.0830137729644775,-6.380247116088866,6.588824272155763
1746702622.1127348,-3.1116559505462646,-6.6931676864624015,6.6285181045532235
1746702622.2062755,-2.657909393310547,-7.583580493927001,7.127030849456788
1746702622.3294258,-2.96578311920166,-6.518038272857665,6.263268470764161
1746702622.3910804,-2.402754545211792,-6.561861991882323,6.302405834197999
1746702622.4855075,-2.2867066860198975,-5.692176818847655,5.789419651031495
1746702622.5743237,-2.206531524658203,-5.315090656280517,5.060084342956544
1746702622.67339,-2.251041889190674,-5.637098312377929,5.794339179992677
1746702622.7795863,-2.1005263328552246,-6.501880645751952,6.292027950286866
1746702622.8510544,-2.074138641357422,-5.9299936294555655,6.171184062957765
1746702622.9472337,-2.1147899627685547,-7.139506816864013,6.512753486633302
1746702623.0359008,-2.0724105834960938,-7.229642868041991,5.892181396484376
1746702623.139304,-2.108858585357666,-7.099839687347411,6.272223949432374
1746702623.2616322,-2.029848575592041,-7.702768802642821,6.817755699157716
1746702623.3236969,-1.9680382013320923,-7.269264698028564,6.335255146026612
1746702623.4469905,-2.015442132949829,-7.01225709915161,6.099567413330079
1746702623.5068047,-2.094956398010254,-5.424824714660644,5.144684314727784
1746702623.592083,-1.8986525535583496,-7.274058818817138,6.284958839416505
1746702623.7450142,-1.9872044324874878,-8.774554252624512,6.8149099349975595
1746702623.7760928,-2.216672658920288,-7.039550304412841,6.1234827041625985
1746702623.870492,-2.5559496879577637,-6.413105010986327,5.382714748382569
1746702623.9585817,-2.8373372554779053,-5.811155319213866,5.174336433410645
1746702624.0596645,-3.1356356143951416,-6.9073519706726065,5.765522480010987
1746702624.1667988,-3.132148265838623,-7.856912612915038,6.5551490783691415
1746702624.2475607,-3.444924831390381,-8.544467926025389,7.736184597015382
1746702624.3696554,-3.760139226913452,-9.282806396484373,7.440438747406007
1746702624.4210882,-3.769460439682007,-10.802055358886717,9.62064552307129
1746702624.5163631,-4.038647651672363,-9.873554229736326,8.470388412475588
1746702624.6275039,-4.118469715118408,-10.2236270904541,9.436860084533693
1746702624.6976383,-4.397495269775391,-10.926816940307615,9.899434089660646
1746702624.795259,-4.408410549163818,-12.861779212951658,11.51093101501465
1746702624.883728,-4.610564708709717,-11.341724395751951,10.473497390747072
1746702624.9764986,-5.301100254058838,-13.469494819641112,12.9571008682251
1746702625.0869706,-5.578780174255371,-13.451757431030272,13.03874206542969
1746702625.1593072,-5.318583965301514,-11.999203681945799,11.481801033020021
1746702625.264084,-4.593677520751953,-14.116310119628904,12.70822048187256
1746702625.3460498,-5.282595157623291,-13.043796539306639,11.600263595581056
1746702625.4404852,-4.721779823303223,-11.20277404785156,11.17910671234131
1746702625.5492868,-4.38449239730835,-12.359279632568358,12.021637916564943
1746702625.647068,-4.608959674835205,-12.119159698486326,12.169206619262697
1746702625.7280676,-3.0792551040649414,-9.187718391418455,8.977353096008303
1746702625.81561,-3.356447219848633,-6.645042896270751,7.2755775451660165
1746702625.898219,-2.8769023418426514,-7.5741233825683585,7.747297763824464
1746702626.0149782,-2.606006145477295,-4.337152481079101,4.777250766754151
1746702626.0854375,-2.55753231048584,-6.63268756866455,6.638094425201417
1746702626.1748846,-2.286055564880371,-5.285071849822997,5.045244216918946
1746702626.266716,-1.9201734066009521,-4.472844600677489,4.208002567291261
1746702626.3605871,-2.0233373641967773,-4.079668521881103,4.475358486175538
1746702626.4752846,-1.9423623085021973,-4.080853462219237,4.37348508834839
1746702626.545561,-1.9321074485778809,-4.646831989288329,4.28385877609253
1746702626.6418443,-1.9317924976348877,-4.912292480468749,5.29057788848877
1746702626.7296772,-1.9717340469360352,-5.299725532531737,5.51429319381714
1746702626.8270707,-1.993868112564087,-5.365051746368407,5.001962661743165
1746702626.9445546,-2.05989146232605,-5.4865732192993155,6.33384132385254
1746702627.01088,-1.9332334995269775,-5.5430212020874015,5.891370296478272
1746702627.1144,-1.8013005256652832,-6.9875426292419425,7.128679275512696
1746702627.1908016,-1.6974284648895264,-7.287758827209472,7.463028430938722
1746702627.2833161,-1.9087048768997192,-6.928094863891601,6.730266571044923
1746702627.3974264,-2.0447068214416504,-7.560053348541259,7.695063114166261
1746702627.472518,-2.17781925201416,-8.029852867126463,8.093144416809084
1746702627.5657148,-2.4529712200164795,-6.656585216522216,7.174942493438722
1746702627.6531606,-2.3365535736083984,-4.889925003051757,5.910840034484864
1746702627.74387,-2.2186279296875,-4.962111473083495,4.8983778953552255
1746702627.859036,-2.8743369579315186,-8.177352905273438,7.176623344421388
1746702627.9325082,-2.985697031021118,-5.851360797882079,5.560035705566407
1746702628.048943,-2.795073986053467,-5.93847894668579,5.677096843719483
1746702628.119476,-2.7142605781555176,-7.012828826904296,6.749407768249513
1746702628.2065763,-2.6814937591552734,-6.43954038619995,6.105945587158204
1746702628.3304596,-2.5961689949035645,-6.154947757720946,5.933441162109376
1746702628.3950224,-2.5475807189941406,-6.524772644042968,5.330755233764649
1746702628.4906387,-2.695674419403076,-10.522924423217772,8.671149253845217
1746702628.5755723,-2.888197898864746,-10.441881179809569,8.786580085754396
1746702628.6683438,-2.841029167175293,-6.172831058502196,5.919034481048585
1746702628.7826512,-2.7384204864501953,-5.173811435699462,5.515913963317872
1746702628.854274,-3.6499085426330566,-9.839793205261229,8.67442321777344
1746702628.9690776,-3.650634288787842,-12.497060775756834,10.879168510437013
1746702629.0385692,-3.9035897254943848,-12.76078701019287,10.792969703674318
1746702629.1307666,-4.00501823425293,-11.392663002014158,9.881616592407228
1746702629.2438602,-4.214237213134766,-13.83740711212158,11.544397354125978
1746702629.3169718,-4.196248531341553,-15.44556140899658,13.238942146301271
1746702629.4264638,-4.042830467224121,-12.59590435028076,10.278696060180666
1746702629.507049,-3.316584825515747,-9.631287574768065,9.005781173706056
1746702629.5903363,-3.433093309402466,-9.924174308776854,9.262210845947267
1746702629.704142,-3.814584255218506,-7.278001785278319,7.565458774566651
1746702629.780167,-3.255571126937866,-7.618782997131347,7.945616245269776
1746702629.8723543,-3.3699824810028076,-5.281278610229491,5.612793445587159
1746702629.969148,-3.1385700702667236,-6.86473798751831,7.610858440399171
1746702630.0582237,-2.8079819679260254,-7.272048950195312,8.187701225280763
1746702630.1700482,-2.4541585445404053,-9.165466308593748,9.542532920837404
1746702630.2446263,-2.456986904144287,-6.859296321868896,6.869450569152833
1746702630.3401902,-1.9916430711746216,-4.487882614135741,4.696784973144532
1746702630.4224885,-2.313659191131592,-6.595212936401366,6.96880865097046
1746702630.5185971,-2.4571502208709717,-5.4872469902038565,6.1633315086364755
1746702630.6464956,-1.859483003616333,-5.631796360015868,6.008666515350343
1746702630.71033,-1.9175693988800049,-6.268898487091064,6.635279178619386
1746702630.804968,-1.8454785346984863,-6.140787601470946,6.42752504348755
1746702630.8825462,-1.0504566431045532,-6.370075225830077,6.01537847518921
1746702630.9758282,-1.4152650833129883,-4.984583854675292,5.003382205963136
1746702631.1029232,-1.635322093963623,-3.754698753356933,4.003821849822999
1746702631.1612298,-1.6850011348724365,-3.9663667678833003,3.763083457946778
1746702631.2672906,-1.6526412963867188,-3.9382622241973873,3.969472408294678
1746702631.3680847,-1.5326848030090332,-5.023818016052245,4.124894618988038
1746702631.4458137,-1.2844479084014893,-6.078157901763915,5.17623519897461
1746702631.5587072,-1.3938968181610107,-9.436925888061522,7.533673763275147
1746702631.6306193,-1.8817970752716064,-9.194108009338377,8.196311950683596
1746702631.7261498,-2.51080584526062,-6.536534786224364,6.250035285949708
1746702631.8104746,-2.163252830505371,-7.032947540283202,6.243311882019044
1746702631.900899,-2.365650177001953,-2.8494493961334224,2.878846883773804
1746702632.0116804,-2.7901039123535156,-5.16365098953247,5.2326722145080575
1746702632.0842676,-2.8168766498565674,-6.872110366821288,6.047783851623536
1746702632.1802318,-2.3464062213897705,-8.439799308776854,7.481284141540528
1746702632.2698903,-2.8187432289123535,-8.396954536437987,7.482704639434815
1746702632.3613577,-2.6526453495025635,-5.7873849868774405,5.542560100555421
1746702632.4746757,-2.692261219024658,-5.391222953796386,5.296565532684327
1746702632.5458987,-2.5091443061828613,-6.424445629119872,6.057619094848634
1746702632.6652162,-2.842015027999878,-7.6135921478271475,6.827332019805909
1746702632.730658,-2.5818467140197754,-7.336718082427978,7.277170181274415
1746702632.8206286,-2.351654052734375,-6.463280200958251,6.812814712524415
1746702632.9355502,-3.4409241676330566,-9.705614089965819,8.226077079772951
1746702633.0105453,-2.1930572986602783,-8.425395965576172,7.2052369117736825
1746702633.1115441,-2.92160701751709,-7.8114633560180655,5.9663782119750985
1746702633.19124,-3.2837483882904053,-7.863329887390136,8.070677757263185
1746702633.2847364,-3.203380823135376,-6.845340728759765,6.609477519989015
1746702633.3977969,-2.9724042415618896,-7.725909709930419,6.798777580261231
1746702633.474837,-2.705101251602173,-6.948937416076659,5.795850276947022
1746702633.567272,-2.765770435333252,-6.719749927520751,7.338709831237794
1746702633.6526241,-2.5078725814819336,-7.867472648620605,8.041662216186525
1746702633.7458289,-3.0912747383117676,-7.256729125976562,6.879071235656739
1746702633.8638675,-2.9786767959594727,-9.613277435302733,9.26832962036133
1746702633.928421,-2.9057602882385254,-8.616007804870604,9.577927589416506
1746702634.0477567,-2.647247314453125,-8.691680908203123,7.947754859924317
1746702634.175056,-3.025938034057617,-7.876030445098876,7.643683433532716
1746702634.2122803,-2.229846954345703,-6.545992374420165,6.416717052459718
1746702634.3196084,-2.2181904315948486,-5.988395690917968,5.415125846862794
1746702634.3908145,-2.648625612258911,-5.589974403381347,5.261015415191651
1746702634.4924676,-2.177868127822876,-5.5604186058044425,5.6476407051086435
1746702634.5764816,-2.0804443359375,-5.379493236541747,5.626372814178468
1746702634.685121,-2.2034153938293457,-6.239591598510741,6.685226917266847
1746702634.7841167,-2.2127387523651123,-6.54114818572998,6.859262943267823
1746702634.8524263,-1.9257218837738037,-4.511409282684325,4.104572296142579
1746702634.9479861,-2.0451765060424805,-5.7991037368774405,6.700392246246339
1746702635.0440009,-1.242396354675293,-5.571413993835448,5.708522319793702
1746702635.1294904,-1.7806850671768188,-6.299590587615966,4.3602380752563485
1746702635.3046286,-2.4864344596862793,-6.908958911895751,6.808447837829591
1746702635.3325484,-1.8491711616516113,-9.489744186401365,8.55121421813965
1746702635.4185398,-2.255403518676758,-7.941265106201171,6.995236396789552
1746702635.5023475,-2.891050338745117,-6.906914710998534,6.382136821746827
1746702635.5913527,-2.590519428253174,-5.879089355468749,5.744310379028321
1746702635.7091203,-2.8916878700256348,-7.031610488891601,5.681749343872071
1746702635.7773943,-1.8937960863113403,-8.32663345336914,6.843768119812013
1746702635.879612,-3.0617313385009766,-6.921612262725829,7.340525150299073
1746702635.9588883,-2.044555187225342,-8.612750053405762,6.142139911651612
1746702636.053914,-2.924901008605957,-7.909379959106444,6.344511508941651
1746702636.166615,-3.4884815216064453,-5.352267265319823,4.937734127044679
1746702636.2432752,-1.6466683149337769,-5.366427421569823,5.825777530670167
1746702636.3413904,-2.914008617401123,-8.815209388732908,7.285353660583497
1746702636.42304,-2.6795310974121094,-7.817574024200439,5.871166706085206
1746702636.518708,-2.4761295318603516,-6.337309837341308,5.922688484191895
1746702636.6323652,-3.183040142059326,-7.80272626876831,6.034884452819825
1746702636.7136652,-2.1567118167877197,-5.343049526214599,4.600490093231202
1746702636.793837,-2.8645904064178467,-7.712684631347655,6.352629184722901
1746702636.8847187,-3.1367027759552,-5.120551586151122,4.397045612335206
1746702636.9803343,-3.1459288597106934,-4.961825370788573,4.969951629638673
1746702637.0898263,-3.4616148471832275,-7.8685522079467765,7.082979679107667
1746702637.1603186,-3.592036247253418,-7.926494598388671,8.254674911499025
1746702637.2704334,-3.9678282737731934,-7.607375621795653,8.329980850219728
1746702637.355573,-4.147250652313232,-9.348525047302244,7.993319034576417
1746702637.4363437,-3.042405128479004,-6.865342140197753,6.462878704071046
1746702637.5510495,-3.6535394191741943,-8.392968177795408,7.754442214965821
1746702637.626232,-3.275303363800049,-6.860827922821044,7.55048418045044
1746702637.724205,-2.356611967086792,-8.844004631042479,8.315029144287111
1746702637.8149009,-3.1990933418273926,-9.47853088378906,7.5246267318725595
1746702637.921005,-2.503706693649292,-8.441215515136717,7.282677650451661
1746702638.014885,-3.799642562866211,-8.719801902770994,8.86124610900879
1746702638.0852776,-3.4423370361328125,-8.996540069580078,7.179987907409669
1746702638.180037,-3.0860464572906494,-8.172178268432617,7.178383350372315
1746702638.266725,-3.6805129051208496,-8.070481300354002,7.863608837127686
1746702638.3604112,-3.039578437805176,-7.5654306411743155,6.2348623275756845
1746702638.474088,-3.1618945598602295,-6.674112319946288,5.437623977661134
1746702638.5459423,-2.984570264816284,-7.952362060546874,6.7439212799072275
1746702638.6412046,-3.4022390842437744,-7.931367874145507,6.847462177276612
1746702638.7290053,-3.2550084590911865,-10.548824310302733,9.354783058166506
1746702638.8220475,-3.562723159790039,-8.120414733886717,7.712459087371827
